"trial_type","trial_index","time_elapsed","internal_node_id","rt","stimulus","button_pressed","key_press","rt_audio","designation","responded_to_audio","N","TYPE","TOTALHIT","TOTALFA","CURRENT_HIT","CURRENT_FA","STATUS","HIT","FA","expt_trajectory"
"pavlovia","0","5","0.0-0.0","","","","","","","","","","","","","","","","",""
"html-button-response","1","24783","0.0-1.0-0.0-0.0","24776","<p>You will now complete an auditory memory task. This will take approximately 15 minutes.</p><p>To learn more about the task, please advance to the next screen.","0","","","","","","","","","","","","","",""
"html-button-response","2","29967","0.0-1.0-0.0-1.0","4931","<p>In this task, you will hear a sequence of letters. The letters will be presented one at a time, and a new sound will play every 2.5 seconds.<p>Your job is to listen closely to these sounds for specific kinds of <b>repeats</b>.</p>","0","","","","","","","","","","","","","",""
"html-button-response","3","44598","0.0-1.0-0.0-2.0","14375","<p>If you are asked to complete a <b>1-back</b>, you must press SPACEBAR every time the current sound matches the sound presented <b>one</b> position previously.<br>Otherwise, you do not have to respond.</p><p>For example, imagine you heard the following sound sequence:</p><p style='color:darkblue'>B...D...<b style='color:red'>D</b>...F...<b style='color:red'>F</b>...<b style='color:red'>F</b>...C...E...</p><p>You would respond to the sounds printed in <b style='color:red'>red</b>, as these were repeated <b>one</b> position previously.</p><p></p>","0","","","","","","","","","","","","","",""
"html-button-response","4","47951","0.0-1.0-0.0-3.0","3086","<p>If you are asked to complete a <b>2-back</b>, you must press SPACEBAR every time the current sound matches the sound presented <b>two</b> positions previously.<br>Otherwise, you do not have to respond.</p><p>For example, imagine you heard the following sound sequence:</p><p style='color:darkblue'>B...D...<b style='color:red'>B</b>...C...<b style='color:red'>B</b>...<b style='color:red'>C</b>...E...F...</p><p>You would respond to the sounds printed in <b style='color:red'>red</b>, as these were repeated <b>two</b> positions previously.</p><p></p>","0","","","","","","","","","","","","","",""
"html-button-response","5","53438","0.0-1.0-0.0-4.0","5221","<p>If you are asked to complete a <b>3-back</b>, you must press SPACEBAR every time the current sound matches the sound presented <b>three</b> positions previously.<br>Otherwise, you do not have to respond.</p><p>For example, imagine you heard the following sound sequence:</p><p style='color:darkblue'>B...D...G...<b style='color:red'>B</b>...<b style='color:red'>D</b>...C...E...<b style='color:red'>D</b>...</p><p>You would respond to the sounds printed in <b style='color:red'>red</b>, as these were repeated <b>three</b> positions previously.</p><p></p>","0","","","","","","","","","","","","","",""
"html-button-response","6","56022","0.0-1.0-0.0-5.0","2323","<p>As you can imagine, the task becomes harder as the delay (1, 2, or 3) increases.</p><p>Please make sure you are in a quiet listening environment and free from distraction.<br>You will receive breaks approximately every 90 seconds to minimize fatigue.</p>","0","","","","","","","","","","","","","",""
"html-button-response","7","57294","0.0-1.0-0.0-6.0","1015","<p>This concludes the introduction to the memory task.</p><p>Please advance to the next screen to receive further instructions.</p>","0","","","","","","","","","","","","","",""
"html-button-response","8","58911","0.0-1.0-1.0-0.0","1352","<p>You will now complete a <strong>1-back.</strong></p><p>Remember, this means that you should press SPACEBAR every time the sound you hear matches the one presented <strong>1</strong> position(s) previously.</p>","0","","","","","","","","","","","","","",""
"audio-keyboard-response","9","61424","0.0-1.0-1.0-1.0-0.0","null","letters/8.wav","","null","null","n-back-trial","0","1","FIRSTS","0","0","0","0","","","",""
"audio-keyboard-response","10","63945","0.0-1.0-1.0-1.1-0.1","null","letters/1.wav","","null","null","n-back-trial","0","1","NT","0","0","0","0","","","",""
"audio-keyboard-response","11","66460","0.0-1.0-1.0-1.2-0.2","1008","letters/1.wav","","32","1008","n-back-trial","1","1","T","1","0","1","0","","","",""
"audio-keyboard-response","12","68971","0.0-1.0-1.0-1.3-0.3","619","letters/1.wav","","32","619","n-back-trial","1","1","T","2","0","1","0","","","",""
"audio-keyboard-response","13","71486","0.0-1.0-1.0-1.4-0.4","null","letters/5.wav","","null","null","n-back-trial","0","1","NT","2","0","0","0","","","",""
"audio-keyboard-response","14","73990","0.0-1.0-1.0-1.5-0.5","null","letters/2.wav","","null","null","n-back-trial","0","1","NT","2","0","0","0","","","",""
"audio-keyboard-response","15","76501","0.0-1.0-1.0-1.6-0.6","null","letters/7.wav","","null","null","n-back-trial","0","1","NT","2","0","0","0","","","",""
"audio-keyboard-response","16","79021","0.0-1.0-1.0-1.7-0.7","null","letters/1.wav","","null","null","n-back-trial","0","1","NT","2","0","0","0","","","",""
"audio-keyboard-response","17","81526","0.0-1.0-1.0-1.8-0.8","null","letters/3.wav","","null","null","n-back-trial","0","1","NT","2","0","0","0","","","",""
"audio-keyboard-response","18","84036","0.0-1.0-1.0-1.9-0.9","null","letters/3.wav","","null","null","n-back-trial","0","1","T","2","0","0","0","","","",""
"audio-keyboard-response","19","86541","0.0-1.0-1.0-1.10-0.10","null","letters/6.wav","","null","null","n-back-trial","0","1","NT","2","0","0","0","","","",""
"audio-keyboard-response","20","89052","0.0-1.0-1.0-1.11-0.11","null","letters/1.wav","","null","null","n-back-trial","0","1","NT","2","0","0","0","","","",""
"audio-keyboard-response","21","91572","0.0-1.0-1.0-1.12-0.12","null","letters/2.wav","","null","null","n-back-trial","0","1","NT","2","0","0","0","","","",""
"audio-keyboard-response","22","94087","0.0-1.0-1.0-1.13-0.13","null","letters/4.wav","","null","null","n-back-trial","0","1","NT","2","0","0","0","","","",""
"audio-keyboard-response","23","96590","0.0-1.0-1.0-1.14-0.14","null","letters/7.wav","","null","null","n-back-trial","0","1","NT","2","0","0","0","","","",""
"audio-keyboard-response","24","99107","0.0-1.0-1.0-1.15-0.15","1200","letters/7.wav","","32","1200","n-back-trial","1","1","T","3","0","1","0","","","",""
"audio-keyboard-response","25","101622","0.0-1.0-1.0-1.16-0.16","560","letters/7.wav","","32","560","n-back-trial","1","1","T","4","0","1","0","","","",""
"audio-keyboard-response","26","104142","0.0-1.0-1.0-1.17-0.17","null","letters/3.wav","","null","null","n-back-trial","0","1","NT","4","0","0","0","","","",""
"audio-keyboard-response","27","106662","0.0-1.0-1.0-1.18-0.18","1160","letters/3.wav","","32","1160","n-back-trial","1","1","T","5","0","1","0","","","",""
"audio-keyboard-response","28","109179","0.0-1.0-1.0-1.19-0.19","null","letters/6.wav","","null","null","n-back-trial","0","1","NT","5","0","0","0","","","",""
"audio-keyboard-response","29","111693","0.0-1.0-1.0-1.20-0.20","null","letters/2.wav","","null","null","n-back-trial","0","1","NT","5","0","0","0","","","",""
"audio-keyboard-response","30","114203","0.0-1.0-1.0-1.21-0.21","null","letters/5.wav","","null","null","n-back-trial","0","1","NT","5","0","0","0","","","",""
"audio-keyboard-response","31","116713","0.0-1.0-1.0-1.22-0.22","null","letters/8.wav","","null","null","n-back-trial","0","1","NT","5","0","0","0","","","",""
"audio-keyboard-response","32","119223","0.0-1.0-1.0-1.23-0.23","null","letters/5.wav","","null","null","n-back-trial","0","1","NT","5","0","0","0","","","",""
"audio-keyboard-response","33","121743","0.0-1.0-1.0-1.24-0.24","1040","letters/5.wav","","32","1040","n-back-trial","1","1","T","6","0","1","0","","","",""
"audio-keyboard-response","34","124259","0.0-1.0-1.0-1.25-0.25","651","letters/5.wav","","32","651","n-back-trial","1","1","T","7","0","1","0","","","",""
"audio-keyboard-response","35","126764","0.0-1.0-1.0-1.26-0.26","null","letters/7.wav","","null","null","n-back-trial","0","1","NT","7","0","0","0","","","",""
"audio-keyboard-response","36","129274","0.0-1.0-1.0-1.27-0.27","651","letters/7.wav","","32","651","n-back-trial","1","1","T","8","0","1","0","","","",""
"audio-keyboard-response","37","131784","0.0-1.0-1.0-1.28-0.28","null","letters/5.wav","","null","null","n-back-trial","0","1","NT","8","0","0","0","","","",""
"audio-keyboard-response","38","134304","0.0-1.0-1.0-1.29-0.29","null","letters/2.wav","","null","null","n-back-trial","0","1","NT","8","0","0","0","","","",""
"audio-keyboard-response","39","136814","0.0-1.0-1.0-1.30-0.30","null","letters/2.wav","","null","null","n-back-trial","0","1","T","8","0","0","0","","","",""
"html-button-response","40","140775","0.0-1.0-1.0-2.0","3959","<p>You may take a short break if you wish.</p><p>Click the button below when you are ready to continue.</p>","0","","","n-back-run-summary","","1","","","","","","+1","8","0",""
"html-button-response","41","143111","0.0-1.0-1.1-0.1","2334","<p>You will now complete a <strong>2-back.</strong></p><p>Remember, this means that you should press SPACEBAR every time the sound you hear matches the one presented <strong>2</strong> position(s) previously.</p>","0","","","","","","","","","","","","","",""
"audio-keyboard-response","42","145614","0.0-1.0-1.1-1.31-0.31","null","letters/2.wav","","null","null","n-back-trial","0","2","FIRSTS","0","0","0","0","","","",""
"audio-keyboard-response","43","148125","0.0-1.0-1.1-1.32-0.32","null","letters/8.wav","","null","null","n-back-trial","0","2","FIRSTS","0","0","0","0","","","",""
"audio-keyboard-response","44","150645","0.0-1.0-1.1-1.33-0.33","720","letters/2.wav","","32","720","n-back-trial","1","2","T","1","0","1","0","","","",""
"audio-keyboard-response","45","153155","0.0-1.0-1.1-1.34-0.34","2051","letters/8.wav","","32","2051","n-back-trial","1","2","T","2","0","1","0","","","",""
"audio-keyboard-response","46","155675","0.0-1.0-1.1-1.35-0.35","null","letters/8.wav","","null","null","n-back-trial","0","2","NT","2","0","0","0","","","",""
"audio-keyboard-response","47","158185","0.0-1.0-1.1-1.36-0.36","null","letters/5.wav","","null","null","n-back-trial","0","2","NT","2","0","0","0","","","",""
"audio-keyboard-response","48","160695","0.0-1.0-1.1-1.37-0.37","null","letters/3.wav","","null","null","n-back-trial","0","2","NT","2","0","0","0","","","",""
"audio-keyboard-response","49","163215","0.0-1.0-1.1-1.38-0.38","709","letters/5.wav","","32","709","n-back-trial","1","2","T","3","0","1","0","","","",""
"audio-keyboard-response","50","165735","0.0-1.0-1.1-1.39-0.39","null","letters/4.wav","","null","null","n-back-trial","0","2","NT","3","0","0","0","","","",""
"audio-keyboard-response","51","168246","0.0-1.0-1.1-1.40-0.40","null","letters/6.wav","","null","null","n-back-trial","0","2","NT","3","0","0","0","","","",""
"audio-keyboard-response","52","170765","0.0-1.0-1.1-1.41-0.41","null","letters/2.wav","","null","null","n-back-trial","0","2","NT","3","0","0","0","","","",""
"audio-keyboard-response","53","173281","0.0-1.0-1.1-1.42-0.42","null","letters/6.wav","","null","null","n-back-trial","0","2","T","3","0","0","0","","","",""
"audio-keyboard-response","54","175786","0.0-1.0-1.1-1.43-0.43","null","letters/8.wav","","null","null","n-back-trial","0","2","NT","3","0","0","0","","","",""
"audio-keyboard-response","55","178296","0.0-1.0-1.1-1.44-0.44","null","letters/6.wav","","null","null","n-back-trial","0","2","T","3","0","0","0","","","",""
"audio-keyboard-response","56","180816","0.0-1.0-1.1-1.45-0.45","null","letters/3.wav","","null","null","n-back-trial","0","2","NT","3","0","0","0","","","",""
"audio-keyboard-response","57","183321","0.0-1.0-1.1-1.46-0.46","null","letters/3.wav","","null","null","n-back-trial","0","2","NT","3","0","0","0","","","",""
"audio-keyboard-response","58","185837","0.0-1.0-1.1-1.47-0.47","null","letters/1.wav","","null","null","n-back-trial","0","2","NT","3","0","0","0","","","",""
"audio-keyboard-response","59","188347","0.0-1.0-1.1-1.48-0.48","null","letters/4.wav","","null","null","n-back-trial","0","2","NT","3","0","0","0","","","",""
"audio-keyboard-response","60","190867","0.0-1.0-1.1-1.49-0.49","null","letters/3.wav","","null","null","n-back-trial","0","2","NT","3","0","0","0","","","",""
"audio-keyboard-response","61","193374","0.0-1.0-1.1-1.50-0.50","null","letters/5.wav","","null","null","n-back-trial","0","2","NT","3","0","0","0","","","",""
"audio-keyboard-response","62","195882","0.0-1.0-1.1-1.51-0.51","null","letters/3.wav","","null","null","n-back-trial","0","2","T","3","0","0","0","","","",""
"audio-keyboard-response","63","198392","0.0-1.0-1.1-1.52-0.52","null","letters/3.wav","","null","null","n-back-trial","0","2","NT","3","0","0","0","","","",""
"audio-keyboard-response","64","200907","0.0-1.0-1.1-1.53-0.53","1208","letters/3.wav","","32","1208","n-back-trial","1","2","T","4","0","1","0","","","",""
"audio-keyboard-response","65","203418","0.0-1.0-1.1-1.54-0.54","null","letters/5.wav","","null","null","n-back-trial","0","2","NT","4","0","0","0","","","",""
"audio-keyboard-response","66","205938","0.0-1.0-1.1-1.55-0.55","1629","letters/3.wav","","32","1629","n-back-trial","1","2","T","5","0","1","0","","","",""
"audio-keyboard-response","67","208458","0.0-1.0-1.1-1.56-0.56","null","letters/2.wav","","null","null","n-back-trial","0","2","NT","5","0","0","0","","","",""
"audio-keyboard-response","68","210978","0.0-1.0-1.1-1.57-0.57","1029","letters/3.wav","","32","1029","n-back-trial","1","2","T","6","0","1","0","","","",""
"audio-keyboard-response","69","213493","0.0-1.0-1.1-1.58-0.58","null","letters/8.wav","","null","null","n-back-trial","0","2","NT","6","0","0","0","","","",""
"audio-keyboard-response","70","216009","0.0-1.0-1.1-1.59-0.59","null","letters/4.wav","","null","null","n-back-trial","0","2","NT","6","0","0","0","","","",""
"audio-keyboard-response","71","218528","0.0-1.0-1.1-1.60-0.60","1061","letters/8.wav","","32","1061","n-back-trial","1","2","T","7","0","1","0","","","",""
"audio-keyboard-response","72","221049","0.0-1.0-1.1-1.61-0.61","null","letters/6.wav","","null","null","n-back-trial","0","2","NT","7","0","0","0","","","",""
"audio-keyboard-response","73","223569","0.0-1.0-1.1-1.62-0.62","null","letters/1.wav","","null","null","n-back-trial","0","2","NT","7","0","0","0","","","",""
"html-button-response","74","226119","0.0-1.0-1.1-2.1","2548","<p>You may take a short break if you wish.</p><p>Click the button below when you are ready to continue.</p>","0","","","n-back-run-summary","","2","","","","","","+1","7","0",""
"html-button-response","75","227814","0.0-1.0-1.2-0.2","1693","<p>You will now complete a <strong>3-back.</strong></p><p>Remember, this means that you should press SPACEBAR every time the sound you hear matches the one presented <strong>3</strong> position(s) previously.</p>","0","","","","","","","","","","","","","",""
"audio-keyboard-response","76","230329","0.0-1.0-1.2-1.63-0.63","null","letters/8.wav","","null","null","n-back-trial","0","3","FIRSTS","0","0","0","0","","","",""
"audio-keyboard-response","77","232839","0.0-1.0-1.2-1.64-0.64","null","letters/4.wav","","null","null","n-back-trial","0","3","FIRSTS","0","0","0","0","","","",""
"audio-keyboard-response","78","235359","0.0-1.0-1.2-1.65-0.65","1179","letters/8.wav","","32","1179","n-back-trial","1","3","FIRSTS","0","1","0","1","","","",""
"audio-keyboard-response","79","237870","0.0-1.0-1.2-1.66-0.66","null","letters/8.wav","","null","null","n-back-trial","0","3","T","0","1","0","0","","","",""
"audio-keyboard-response","80","240379","0.0-1.0-1.2-1.67-0.67","120","letters/4.wav","","32","120","n-back-trial","1","3","T","1","1","1","0","","","",""
"audio-keyboard-response","81","242900","0.0-1.0-1.2-1.68-0.68","309","letters/7.wav","","32","309","n-back-trial","1","3","NT","1","2","0","1","","","",""
"audio-keyboard-response","82","245410","0.0-1.0-1.2-1.69-0.69","null","letters/4.wav","","null","null","n-back-trial","0","3","NT","1","2","0","0","","","",""
"audio-keyboard-response","83","247920","0.0-1.0-1.2-1.70-0.70","null","letters/1.wav","","null","null","n-back-trial","0","3","NT","1","2","0","0","","","",""
"audio-keyboard-response","84","250430","0.0-1.0-1.2-1.71-0.71","null","letters/2.wav","","null","null","n-back-trial","0","3","NT","1","2","0","0","","","",""
"audio-keyboard-response","85","252940","0.0-1.0-1.2-1.72-0.72","null","letters/5.wav","","null","null","n-back-trial","0","3","NT","1","2","0","0","","","",""
"audio-keyboard-response","86","255456","0.0-1.0-1.2-1.73-0.73","null","letters/8.wav","","null","null","n-back-trial","0","3","NT","1","2","0","0","","","",""
"audio-keyboard-response","87","257971","0.0-1.0-1.2-1.74-0.74","null","letters/2.wav","","null","null","n-back-trial","0","3","T","1","2","0","0","","","",""
"audio-keyboard-response","88","260491","0.0-1.0-1.2-1.75-0.75","2261","letters/8.wav","","32","2261","n-back-trial","1","3","NT","1","3","0","1","","","",""
"audio-keyboard-response","89","262996","0.0-1.0-1.2-1.76-0.76","null","letters/8.wav","","null","null","n-back-trial","0","3","T","1","3","0","0","","","",""
"audio-keyboard-response","90","265506","0.0-1.0-1.2-1.77-0.77","null","letters/4.wav","","null","null","n-back-trial","0","3","NT","1","3","0","0","","","",""
"audio-keyboard-response","91","268017","0.0-1.0-1.2-1.78-0.78","null","letters/1.wav","","null","null","n-back-trial","0","3","NT","1","3","0","0","","","",""
"audio-keyboard-response","92","270531","0.0-1.0-1.2-1.79-0.79","null","letters/8.wav","","null","null","n-back-trial","0","3","T","1","3","0","0","","","",""
"audio-keyboard-response","93","273042","0.0-1.0-1.2-1.80-0.80","null","letters/3.wav","","null","null","n-back-trial","0","3","NT","1","3","0","0","","","",""
"audio-keyboard-response","94","275557","0.0-1.0-1.2-1.81-0.81","null","letters/1.wav","","null","null","n-back-trial","0","3","T","1","3","0","0","","","",""
"audio-keyboard-response","95","278062","0.0-1.0-1.2-1.82-0.82","928","letters/4.wav","","32","928","n-back-trial","1","3","NT","1","4","0","1","","","",""
"audio-keyboard-response","96","280572","0.0-1.0-1.2-1.83-0.83","null","letters/5.wav","","null","null","n-back-trial","0","3","NT","1","4","0","0","","","",""
"audio-keyboard-response","97","283077","0.0-1.0-1.2-1.84-0.84","null","letters/3.wav","","null","null","n-back-trial","0","3","NT","1","4","0","0","","","",""
"audio-keyboard-response","98","285592","0.0-1.0-1.2-1.85-0.85","null","letters/4.wav","","null","null","n-back-trial","0","3","T","1","4","0","0","","","",""
"audio-keyboard-response","99","288107","0.0-1.0-1.2-1.86-0.86","1560","letters/5.wav","","32","1560","n-back-trial","1","3","T","2","4","1","0","","","",""
"audio-keyboard-response","100","290612","0.0-1.0-1.2-1.87-0.87","null","letters/2.wav","","null","null","n-back-trial","0","3","NT","2","4","0","0","","","",""
"audio-keyboard-response","101","293118","0.0-1.0-1.2-1.88-0.88","2381","letters/3.wav","","32","2381","n-back-trial","1","3","NT","2","5","0","1","","","",""
"audio-keyboard-response","102","295633","0.0-1.0-1.2-1.89-0.89","null","letters/5.wav","","null","null","n-back-trial","0","3","T","2","5","0","0","","","",""
"audio-keyboard-response","103","298143","0.0-1.0-1.2-1.90-0.90","1720","letters/5.wav","","32","1720","n-back-trial","1","3","NT","2","6","0","1","","","",""
"audio-keyboard-response","104","300663","0.0-1.0-1.2-1.91-0.91","null","letters/6.wav","","null","null","n-back-trial","0","3","NT","2","6","0","0","","","",""
"audio-keyboard-response","105","303183","0.0-1.0-1.2-1.92-0.92","null","letters/3.wav","","null","null","n-back-trial","0","3","NT","2","6","0","0","","","",""
"audio-keyboard-response","106","305703","0.0-1.0-1.2-1.93-0.93","null","letters/6.wav","","null","null","n-back-trial","0","3","NT","2","6","0","0","","","",""
"audio-keyboard-response","107","308223","0.0-1.0-1.2-1.94-0.94","null","letters/7.wav","","null","null","n-back-trial","0","3","NT","2","6","0","0","","","",""
"audio-keyboard-response","108","310744","0.0-1.0-1.2-1.95-0.95","1091","letters/3.wav","","32","1091","n-back-trial","1","3","T","3","6","1","0","","","",""
"html-button-response","109","313686","0.0-1.0-1.2-2.2","2941","<p>You may take a short break if you wish.</p><p>Click the button below when you are ready to continue.</p>","0","","","n-back-run-summary","","3","","","","","","-1","3","6",""
"html-button-response","110","321662","0.0-1.0-1.3-0.3","7974","<p>You will now complete a <strong>2-back.</strong></p><p>Remember, this means that you should press SPACEBAR every time the sound you hear matches the one presented <strong>2</strong> position(s) previously.</p>","0","","","","","","","","","","","","","",""
"audio-keyboard-response","111","324174","0.0-1.0-1.3-1.96-0.96","null","letters/2.wav","","null","null","n-back-trial","0","2","FIRSTS","0","0","0","0","","","",""
"audio-keyboard-response","112","326684","0.0-1.0-1.3-1.97-0.97","null","letters/8.wav","","null","null","n-back-trial","0","2","FIRSTS","0","0","0","0","","","",""
"audio-keyboard-response","113","329204","0.0-1.0-1.3-1.98-0.98","null","letters/4.wav","","null","null","n-back-trial","0","2","NT","0","0","0","0","","","",""
"audio-keyboard-response","114","331724","0.0-1.0-1.3-1.99-0.99","null","letters/4.wav","","null","null","n-back-trial","0","2","NT","0","0","0","0","","","",""
"audio-keyboard-response","115","334235","0.0-1.0-1.3-1.100-0.100","null","letters/6.wav","","null","null","n-back-trial","0","2","NT","0","0","0","0","","","",""
"audio-keyboard-response","116","336745","0.0-1.0-1.3-1.101-0.101","null","letters/3.wav","","null","null","n-back-trial","0","2","NT","0","0","0","0","","","",""
"audio-keyboard-response","117","339255","0.0-1.0-1.3-1.102-0.102","null","letters/8.wav","","null","null","n-back-trial","0","2","NT","0","0","0","0","","","",""
"audio-keyboard-response","118","341775","0.0-1.0-1.3-1.103-0.103","1024","letters/3.wav","","32","1024","n-back-trial","1","2","T","1","0","1","0","","","",""
"audio-keyboard-response","119","344285","0.0-1.0-1.3-1.104-0.104","1312","letters/8.wav","","32","1312","n-back-trial","1","2","T","2","0","1","0","","","",""
"audio-keyboard-response","120","346790","0.0-1.0-1.3-1.105-0.105","1101","letters/3.wav","","32","1101","n-back-trial","1","2","T","3","0","1","0","","","",""
"audio-keyboard-response","121","349296","0.0-1.0-1.3-1.106-0.106","1179","letters/2.wav","","32","1179","n-back-trial","1","2","NT","3","1","0","1","","","",""
"audio-keyboard-response","122","351806","0.0-1.0-1.3-1.107-0.107","1192","letters/3.wav","","32","1192","n-back-trial","1","2","T","4","1","1","0","","","",""
"audio-keyboard-response","123","354321","0.0-1.0-1.3-1.108-0.108","null","letters/2.wav","","null","null","n-back-trial","0","2","T","4","1","0","0","","","",""
"audio-keyboard-response","124","356826","0.0-1.0-1.3-1.109-0.109","null","letters/2.wav","","null","null","n-back-trial","0","2","NT","4","1","0","0","","","",""
"audio-keyboard-response","125","359346","0.0-1.0-1.3-1.110-0.110","1491","letters/4.wav","","32","1491","n-back-trial","1","2","NT","4","2","0","1","","","",""
"audio-keyboard-response","126","361856","0.0-1.0-1.3-1.111-0.111","1131","letters/2.wav","","32","1131","n-back-trial","1","2","T","5","2","1","0","","","",""
"audio-keyboard-response","127","364377","0.0-1.0-1.3-1.112-0.112","981","letters/4.wav","","32","981","n-back-trial","1","2","T","6","2","1","0","","","",""
"audio-keyboard-response","128","366897","0.0-1.0-1.3-1.113-0.113","null","letters/7.wav","","null","null","n-back-trial","0","2","NT","6","2","0","0","","","",""
"audio-keyboard-response","129","369417","0.0-1.0-1.3-1.114-0.114","null","letters/2.wav","","null","null","n-back-trial","0","2","NT","6","2","0","0","","","",""
"audio-keyboard-response","130","371927","0.0-1.0-1.3-1.115-0.115","800","letters/7.wav","","32","800","n-back-trial","1","2","T","7","2","1","0","","","",""
"audio-keyboard-response","131","374437","0.0-1.0-1.3-1.116-0.116","null","letters/1.wav","","null","null","n-back-trial","0","2","NT","7","2","0","0","","","",""
"audio-keyboard-response","132","376957","0.0-1.0-1.3-1.117-0.117","1091","letters/7.wav","","32","1091","n-back-trial","1","2","T","8","2","1","0","","","",""
"audio-keyboard-response","133","379477","0.0-1.0-1.3-1.118-0.118","null","letters/6.wav","","null","null","n-back-trial","0","2","NT","8","2","0","0","","","",""
"audio-keyboard-response","134","381997","0.0-1.0-1.3-1.119-0.119","909","letters/1.wav","","32","909","n-back-trial","1","2","NT","8","3","0","1","","","",""
"audio-keyboard-response","135","384507","0.0-1.0-1.3-1.120-0.120","null","letters/1.wav","","null","null","n-back-trial","0","2","NT","8","3","0","0","","","",""
"audio-keyboard-response","136","387028","0.0-1.0-1.3-1.121-0.121","651","letters/7.wav","","32","651","n-back-trial","1","2","NT","8","4","0","1","","","",""
"audio-keyboard-response","137","389548","0.0-1.0-1.3-1.122-0.122","null","letters/4.wav","","null","null","n-back-trial","0","2","NT","8","4","0","0","","","",""
"audio-keyboard-response","138","392068","0.0-1.0-1.3-1.123-0.123","null","letters/2.wav","","null","null","n-back-trial","0","2","NT","8","4","0","0","","","",""
"audio-keyboard-response","139","394578","0.0-1.0-1.3-1.124-0.124","null","letters/7.wav","","null","null","n-back-trial","0","2","NT","8","4","0","0","","","",""
"audio-keyboard-response","140","397088","0.0-1.0-1.3-1.125-0.125","null","letters/2.wav","","null","null","n-back-trial","0","2","T","8","4","0","0","","","",""
"audio-keyboard-response","141","399599","0.0-1.0-1.3-1.126-0.126","null","letters/8.wav","","null","null","n-back-trial","0","2","NT","8","4","0","0","","","",""
"audio-keyboard-response","142","402106","0.0-1.0-1.3-1.127-0.127","null","letters/1.wav","","null","null","n-back-trial","0","2","NT","8","4","0","0","","","",""
"html-button-response","143","404350","0.0-1.0-1.3-2.3","2243","<p>You may take a short break if you wish.</p><p>Click the button below when you are ready to continue.</p>","0","","","n-back-run-summary","","2","","","","","","0","8","4",""
"html-button-response","144","411598","0.0-1.0-1.4-0.4","7247","<p>You will now complete a <strong>2-back.</strong></p><p>Remember, this means that you should press SPACEBAR every time the sound you hear matches the one presented <strong>2</strong> position(s) previously.</p>","0","","","","","","","","","","","","","",""
"audio-keyboard-response","145","414119","0.0-1.0-1.4-1.128-0.128","null","letters/4.wav","","null","null","n-back-trial","0","2","FIRSTS","0","0","0","0","","","",""
"audio-keyboard-response","146","416630","0.0-1.0-1.4-1.129-0.129","null","letters/1.wav","","null","null","n-back-trial","0","2","FIRSTS","0","0","0","0","","","",""
"audio-keyboard-response","147","419149","0.0-1.0-1.4-1.130-0.130","2299","letters/4.wav","","32","2299","n-back-trial","1","2","T","1","0","1","0","","","",""
"audio-keyboard-response","148","421670","0.0-1.0-1.4-1.131-0.131","null","letters/3.wav","","null","null","n-back-trial","0","2","NT","1","0","0","0","","","",""
"audio-keyboard-response","149","424190","0.0-1.0-1.4-1.132-0.132","1069","letters/4.wav","","32","1069","n-back-trial","1","2","T","2","0","1","0","","","",""
"audio-keyboard-response","150","426710","0.0-1.0-1.4-1.133-0.133","1059","letters/3.wav","","32","1059","n-back-trial","1","2","T","3","0","1","0","","","",""
"audio-keyboard-response","151","429220","0.0-1.0-1.4-1.134-0.134","null","letters/2.wav","","null","null","n-back-trial","0","2","NT","3","0","0","0","","","",""
"audio-keyboard-response","152","431730","0.0-1.0-1.4-1.135-0.135","null","letters/5.wav","","null","null","n-back-trial","0","2","NT","3","0","0","0","","","",""
"audio-keyboard-response","153","434250","0.0-1.0-1.4-1.136-0.136","null","letters/6.wav","","null","null","n-back-trial","0","2","NT","3","0","0","0","","","",""
"audio-keyboard-response","154","436770","0.0-1.0-1.4-1.137-0.137","null","letters/5.wav","","null","null","n-back-trial","0","2","T","3","0","0","0","","","",""
"audio-keyboard-response","155","439291","0.0-1.0-1.4-1.138-0.138","null","letters/5.wav","","null","null","n-back-trial","0","2","NT","3","0","0","0","","","",""
"audio-keyboard-response","156","441801","0.0-1.0-1.4-1.139-0.139","880","letters/5.wav","","32","880","n-back-trial","1","2","T","4","0","1","0","","","",""
"audio-keyboard-response","157","444311","0.0-1.0-1.4-1.140-0.140","null","letters/8.wav","","null","null","n-back-trial","0","2","NT","4","0","0","0","","","",""
"audio-keyboard-response","158","446831","0.0-1.0-1.4-1.141-0.141","null","letters/5.wav","","null","null","n-back-trial","0","2","T","4","0","0","0","","","",""
"audio-keyboard-response","159","449351","0.0-1.0-1.4-1.142-0.142","120","letters/4.wav","","32","120","n-back-trial","1","2","NT","4","1","0","1","","","",""
"audio-keyboard-response","160","451871","0.0-1.0-1.4-1.143-0.143","997","letters/8.wav","","32","997","n-back-trial","1","2","NT","4","2","0","1","","","",""
"audio-keyboard-response","161","454381","0.0-1.0-1.4-1.144-0.144","null","letters/1.wav","","null","null","n-back-trial","0","2","NT","4","2","0","0","","","",""
"audio-keyboard-response","162","456901","0.0-1.0-1.4-1.145-0.145","null","letters/8.wav","","null","null","n-back-trial","0","2","T","4","2","0","0","","","",""
"audio-keyboard-response","163","459422","0.0-1.0-1.4-1.146-0.146","1000","letters/1.wav","","32","1000","n-back-trial","1","2","T","5","2","1","0","","","",""
"audio-keyboard-response","164","461942","0.0-1.0-1.4-1.147-0.147","null","letters/2.wav","","null","null","n-back-trial","0","2","NT","5","2","0","0","","","",""
"audio-keyboard-response","165","464452","0.0-1.0-1.4-1.148-0.148","null","letters/5.wav","","null","null","n-back-trial","0","2","NT","5","2","0","0","","","",""
"audio-keyboard-response","166","466972","0.0-1.0-1.4-1.149-0.149","null","letters/2.wav","","null","null","n-back-trial","0","2","T","5","2","0","0","","","",""
"audio-keyboard-response","167","469482","0.0-1.0-1.4-1.150-0.150","null","letters/6.wav","","null","null","n-back-trial","0","2","NT","5","2","0","0","","","",""
"audio-keyboard-response","168","472002","0.0-1.0-1.4-1.151-0.151","2448","letters/1.wav","","32","2448","n-back-trial","1","2","NT","5","3","0","1","","","",""
"audio-keyboard-response","169","474512","0.0-1.0-1.4-1.152-0.152","1149","letters/6.wav","","32","1149","n-back-trial","1","2","T","6","3","1","0","","","",""
"audio-keyboard-response","170","477032","0.0-1.0-1.4-1.153-0.153","null","letters/4.wav","","null","null","n-back-trial","0","2","NT","6","3","0","0","","","",""
"audio-keyboard-response","171","479543","0.0-1.0-1.4-1.154-0.154","1131","letters/2.wav","","32","1131","n-back-trial","1","2","NT","6","4","0","1","","","",""
"audio-keyboard-response","172","482063","0.0-1.0-1.4-1.155-0.155","null","letters/7.wav","","null","null","n-back-trial","0","2","NT","6","4","0","0","","","",""
"audio-keyboard-response","173","484573","0.0-1.0-1.4-1.156-0.156","null","letters/5.wav","","null","null","n-back-trial","0","2","NT","6","4","0","0","","","",""
"audio-keyboard-response","174","487093","0.0-1.0-1.4-1.157-0.157","null","letters/4.wav","","null","null","n-back-trial","0","2","NT","6","4","0","0","","","",""
"audio-keyboard-response","175","489613","0.0-1.0-1.4-1.158-0.158","null","letters/3.wav","","null","null","n-back-trial","0","2","NT","6","4","0","0","","","",""
"audio-keyboard-response","176","492123","0.0-1.0-1.4-1.159-0.159","null","letters/1.wav","","null","null","n-back-trial","0","2","NT","6","4","0","0","","","",""
"html-button-response","177","499382","0.0-1.0-1.4-2.4","7258","<p>You may take a short break if you wish.</p><p>Click the button below when you are ready to continue.</p>","0","","","n-back-run-summary","","2","","","","","","0","6","4",""
"html-button-response","178","512190","0.0-1.0-1.5-0.5","12807","<p>You will now complete a <strong>2-back.</strong></p><p>Remember, this means that you should press SPACEBAR every time the sound you hear matches the one presented <strong>2</strong> position(s) previously.</p>","0","","","","","","","","","","","","","",""
"audio-keyboard-response","179","514710","0.0-1.0-1.5-1.160-0.160","null","letters/2.wav","","null","null","n-back-trial","0","2","FIRSTS","0","0","0","0","","","",""
"audio-keyboard-response","180","517225","0.0-1.0-1.5-1.161-0.161","null","letters/2.wav","","null","null","n-back-trial","0","2","FIRSTS","0","0","0","0","","","",""
"audio-keyboard-response","181","519745","0.0-1.0-1.5-1.162-0.162","781","letters/2.wav","","32","781","n-back-trial","1","2","T","1","0","1","0","","","",""
"audio-keyboard-response","182","522255","0.0-1.0-1.5-1.163-0.163","null","letters/8.wav","","null","null","n-back-trial","0","2","NT","1","0","0","0","","","",""
"audio-keyboard-response","183","524775","0.0-1.0-1.5-1.164-0.164","null","letters/1.wav","","null","null","n-back-trial","0","2","NT","1","0","0","0","","","",""
"audio-keyboard-response","184","527285","0.0-1.0-1.5-1.165-0.165","null","letters/3.wav","","null","null","n-back-trial","0","2","NT","1","0","0","0","","","",""
"audio-keyboard-response","185","529796","0.0-1.0-1.5-1.166-0.166","null","letters/6.wav","","null","null","n-back-trial","0","2","NT","1","0","0","0","","","",""
"audio-keyboard-response","186","532301","0.0-1.0-1.5-1.167-0.167","1411","letters/3.wav","","32","1411","n-back-trial","1","2","T","2","0","1","0","","","",""
"audio-keyboard-response","187","534816","0.0-1.0-1.5-1.168-0.168","null","letters/3.wav","","null","null","n-back-trial","0","2","NT","2","0","0","0","","","",""
"audio-keyboard-response","188","537326","0.0-1.0-1.5-1.169-0.169","null","letters/4.wav","","null","null","n-back-trial","0","2","NT","2","0","0","0","","","",""
"audio-keyboard-response","189","539831","0.0-1.0-1.5-1.170-0.170","null","letters/1.wav","","null","null","n-back-trial","0","2","NT","2","0","0","0","","","",""
"audio-keyboard-response","190","542336","0.0-1.0-1.5-1.171-0.171","null","letters/2.wav","","null","null","n-back-trial","0","2","NT","2","0","0","0","","","",""
"audio-keyboard-response","191","544846","0.0-1.0-1.5-1.172-0.172","null","letters/5.wav","","null","null","n-back-trial","0","2","NT","2","0","0","0","","","",""
"audio-keyboard-response","192","547356","0.0-1.0-1.5-1.173-0.173","null","letters/7.wav","","null","null","n-back-trial","0","2","NT","2","0","0","0","","","",""
"audio-keyboard-response","193","549876","0.0-1.0-1.5-1.174-0.174","null","letters/7.wav","","null","null","n-back-trial","0","2","NT","2","0","0","0","","","",""
"audio-keyboard-response","194","552387","0.0-1.0-1.5-1.175-0.175","1061","letters/7.wav","","32","1061","n-back-trial","1","2","T","3","0","1","0","","","",""
"audio-keyboard-response","195","554896","0.0-1.0-1.5-1.176-0.176","null","letters/6.wav","","null","null","n-back-trial","0","2","NT","3","0","0","0","","","",""
"audio-keyboard-response","196","557417","0.0-1.0-1.5-1.177-0.177","1019","letters/7.wav","","32","1019","n-back-trial","1","2","T","4","0","1","0","","","",""
"audio-keyboard-response","197","559937","0.0-1.0-1.5-1.178-0.178","1440","letters/6.wav","","32","1440","n-back-trial","1","2","T","5","0","1","0","","","",""
"audio-keyboard-response","198","562457","0.0-1.0-1.5-1.179-0.179","null","letters/6.wav","","null","null","n-back-trial","0","2","NT","5","0","0","0","","","",""
"audio-keyboard-response","199","564972","0.0-1.0-1.5-1.180-0.180","null","letters/3.wav","","null","null","n-back-trial","0","2","NT","5","0","0","0","","","",""
"audio-keyboard-response","200","567487","0.0-1.0-1.5-1.181-0.181","2419","letters/6.wav","","32","2419","n-back-trial","1","2","T","6","0","1","0","","","",""
"audio-keyboard-response","201","570007","0.0-1.0-1.5-1.182-0.182","null","letters/5.wav","","null","null","n-back-trial","0","2","NT","6","0","0","0","","","",""
"audio-keyboard-response","202","572528","0.0-1.0-1.5-1.183-0.183","null","letters/1.wav","","null","null","n-back-trial","0","2","NT","6","0","0","0","","","",""
"audio-keyboard-response","203","575038","0.0-1.0-1.5-1.184-0.184","1549","letters/6.wav","","32","1549","n-back-trial","1","2","NT","6","1","0","1","","","",""
"audio-keyboard-response","204","577548","0.0-1.0-1.5-1.185-0.185","null","letters/7.wav","","null","null","n-back-trial","0","2","NT","6","1","0","0","","","",""
"audio-keyboard-response","205","580068","0.0-1.0-1.5-1.186-0.186","1672","letters/6.wav","","32","1672","n-back-trial","1","2","T","7","1","1","0","","","",""
"audio-keyboard-response","206","582583","0.0-1.0-1.5-1.187-0.187","null","letters/3.wav","","null","null","n-back-trial","0","2","NT","7","1","0","0","","","",""
"audio-keyboard-response","207","585098","0.0-1.0-1.5-1.188-0.188","2211","letters/6.wav","","32","2211","n-back-trial","1","2","T","8","1","1","0","","","",""
"audio-keyboard-response","208","587604","0.0-1.0-1.5-1.189-0.189","null","letters/3.wav","","null","null","n-back-trial","0","2","T","8","1","0","0","","","",""
"audio-keyboard-response","209","590119","0.0-1.0-1.5-1.190-0.190","669","letters/6.wav","","32","669","n-back-trial","1","2","T","9","1","1","0","","","",""
"audio-keyboard-response","210","592629","0.0-1.0-1.5-1.191-0.191","null","letters/8.wav","","null","null","n-back-trial","0","2","NT","9","1","0","0","","","",""
"html-button-response","211","596150","0.0-1.0-1.5-2.5","3520","<p>You may take a short break if you wish.</p><p>Click the button below when you are ready to continue.</p>","0","","","n-back-run-summary","","2","","","","","","+1","9","1",""
"html-button-response","212","1097942","0.0-1.0-1.6-0.6","501790","<p>You will now complete a <strong>3-back.</strong></p><p>Remember, this means that you should press SPACEBAR every time the sound you hear matches the one presented <strong>3</strong> position(s) previously.</p>","0","","","","","","","","","","","","","",""
"audio-keyboard-response","213","1100444","0.0-1.0-1.6-1.192-0.192","null","letters/6.wav","","null","null","n-back-trial","0","3","FIRSTS","0","0","0","0","","","",""
"audio-keyboard-response","214","1102960","0.0-1.0-1.6-1.193-0.193","null","letters/7.wav","","null","null","n-back-trial","0","3","FIRSTS","0","0","0","0","","","",""
"audio-keyboard-response","215","1105481","0.0-1.0-1.6-1.194-0.194","null","letters/6.wav","","null","null","n-back-trial","0","3","FIRSTS","0","0","0","0","","","",""
"audio-keyboard-response","216","1108001","0.0-1.0-1.6-1.195-0.195","920","letters/6.wav","","32","920","n-back-trial","1","3","T","1","0","1","0","","","",""
"audio-keyboard-response","217","1110506","0.0-1.0-1.6-1.196-0.196","null","letters/8.wav","","null","null","n-back-trial","0","3","NT","1","0","0","0","","","",""
"audio-keyboard-response","218","1113021","0.0-1.0-1.6-1.197-0.197","null","letters/6.wav","","null","null","n-back-trial","0","3","T","1","0","0","0","","","",""
"audio-keyboard-response","219","1115541","0.0-1.0-1.6-1.198-0.198","1440","letters/2.wav","","32","1440","n-back-trial","1","3","NT","1","1","0","1","","","",""
"audio-keyboard-response","220","1118046","0.0-1.0-1.6-1.199-0.199","null","letters/3.wav","","null","null","n-back-trial","0","3","NT","1","1","0","0","","","",""
"audio-keyboard-response","221","1120557","0.0-1.0-1.6-1.200-0.200","null","letters/3.wav","","null","null","n-back-trial","0","3","NT","1","1","0","0","","","",""
"audio-keyboard-response","222","1123072","0.0-1.0-1.6-1.201-0.201","null","letters/4.wav","","null","null","n-back-trial","0","3","NT","1","1","0","0","","","",""
"audio-keyboard-response","223","1125592","0.0-1.0-1.6-1.202-0.202","2352","letters/3.wav","","32","2352","n-back-trial","1","3","T","2","1","1","0","","","",""
"audio-keyboard-response","224","1128102","0.0-1.0-1.6-1.203-0.203","null","letters/5.wav","","null","null","n-back-trial","0","3","NT","2","1","0","0","","","",""
"audio-keyboard-response","225","1130607","0.0-1.0-1.6-1.204-0.204","null","letters/5.wav","","null","null","n-back-trial","0","3","NT","2","1","0","0","","","",""
"audio-keyboard-response","226","1133122","0.0-1.0-1.6-1.205-0.205","null","letters/1.wav","","null","null","n-back-trial","0","3","NT","2","1","0","0","","","",""
"audio-keyboard-response","227","1135643","0.0-1.0-1.6-1.206-0.206","null","letters/4.wav","","null","null","n-back-trial","0","3","NT","2","1","0","0","","","",""
"audio-keyboard-response","228","1138153","0.0-1.0-1.6-1.207-0.207","null","letters/5.wav","","null","null","n-back-trial","0","3","T","2","1","0","0","","","",""
"audio-keyboard-response","229","1140673","0.0-1.0-1.6-1.208-0.208","null","letters/1.wav","","null","null","n-back-trial","0","3","T","2","1","0","0","","","",""
"audio-keyboard-response","230","1143183","0.0-1.0-1.6-1.209-0.209","null","letters/4.wav","","null","null","n-back-trial","0","3","T","2","1","0","0","","","",""
"audio-keyboard-response","231","1145693","0.0-1.0-1.6-1.210-0.210","null","letters/5.wav","","null","null","n-back-trial","0","3","T","2","1","0","0","","","",""
"audio-keyboard-response","232","1148213","0.0-1.0-1.6-1.211-0.211","null","letters/7.wav","","null","null","n-back-trial","0","3","NT","2","1","0","0","","","",""
"audio-keyboard-response","233","1150724","0.0-1.0-1.6-1.212-0.212","null","letters/7.wav","","null","null","n-back-trial","0","3","NT","2","1","0","0","","","",""
"audio-keyboard-response","234","1153243","0.0-1.0-1.6-1.213-0.213","null","letters/6.wav","","null","null","n-back-trial","0","3","NT","2","1","0","0","","","",""
"audio-keyboard-response","235","1155754","0.0-1.0-1.6-1.214-0.214","null","letters/2.wav","","null","null","n-back-trial","0","3","NT","2","1","0","0","","","",""
"audio-keyboard-response","236","1158264","0.0-1.0-1.6-1.215-0.215","null","letters/1.wav","","null","null","n-back-trial","0","3","NT","2","1","0","0","","","",""
"audio-keyboard-response","237","1160784","0.0-1.0-1.6-1.216-0.216","null","letters/6.wav","","null","null","n-back-trial","0","3","T","2","1","0","0","","","",""
"audio-keyboard-response","238","1163294","0.0-1.0-1.6-1.217-0.217","null","letters/4.wav","","null","null","n-back-trial","0","3","NT","2","1","0","0","","","",""
"audio-keyboard-response","239","1165805","0.0-1.0-1.6-1.218-0.218","null","letters/7.wav","","null","null","n-back-trial","0","3","NT","2","1","0","0","","","",""
"audio-keyboard-response","240","1168324","0.0-1.0-1.6-1.219-0.219","null","letters/5.wav","","null","null","n-back-trial","0","3","NT","2","1","0","0","","","",""
"audio-keyboard-response","241","1170830","0.0-1.0-1.6-1.220-0.220","null","letters/6.wav","","null","null","n-back-trial","0","3","NT","2","1","0","0","","","",""
"audio-keyboard-response","242","1173345","0.0-1.0-1.6-1.221-0.221","null","letters/7.wav","","null","null","n-back-trial","0","3","T","2","1","0","0","","","",""
"audio-keyboard-response","243","1175865","0.0-1.0-1.6-1.222-0.222","null","letters/3.wav","","null","null","n-back-trial","0","3","NT","2","1","0","0","","","",""
"audio-keyboard-response","244","1178375","0.0-1.0-1.6-1.223-0.223","null","letters/5.wav","","null","null","n-back-trial","0","3","NT","2","1","0","0","","","",""
"audio-keyboard-response","245","1180895","0.0-1.0-1.6-1.224-0.224","null","letters/7.wav","","null","null","n-back-trial","0","3","T","2","1","0","0","","","",""
"html-button-response","246","1188462","0.0-1.0-1.6-2.6","7564","<p>You may take a short break if you wish.</p><p>Click the button below when you are ready to continue.</p>","0","","","n-back-run-summary","","3","","","","","","-1","2","1",""
"html-button-response","247","1189270","0.0-1.0-1.7-0.7","806","<p>You will now complete a <strong>2-back.</strong></p><p>Remember, this means that you should press SPACEBAR every time the sound you hear matches the one presented <strong>2</strong> position(s) previously.</p>","0","","","","","","","","","","","","","",""
"audio-keyboard-response","248","1191776","0.0-1.0-1.7-1.225-0.225","null","letters/8.wav","","null","null","n-back-trial","0","2","FIRSTS","0","0","0","0","","","",""
"audio-keyboard-response","249","1194296","0.0-1.0-1.7-1.226-0.226","null","letters/1.wav","","null","null","n-back-trial","0","2","FIRSTS","0","0","0","0","","","",""
"audio-keyboard-response","250","1196816","0.0-1.0-1.7-1.227-0.227","null","letters/1.wav","","null","null","n-back-trial","0","2","NT","0","0","0","0","","","",""
"audio-keyboard-response","251","1199336","0.0-1.0-1.7-1.228-0.228","859","letters/1.wav","","32","859","n-back-trial","1","2","T","1","0","1","0","","","",""
"audio-keyboard-response","252","1201846","0.0-1.0-1.7-1.229-0.229","null","letters/3.wav","","null","null","n-back-trial","0","2","NT","1","0","0","0","","","",""
"audio-keyboard-response","253","1204357","0.0-1.0-1.7-1.230-0.230","749","letters/1.wav","","32","749","n-back-trial","1","2","T","2","0","1","0","","","",""
"audio-keyboard-response","254","1206866","0.0-1.0-1.7-1.231-0.231","null","letters/5.wav","","null","null","n-back-trial","0","2","NT","2","0","0","0","","","",""
"audio-keyboard-response","255","1209372","0.0-1.0-1.7-1.232-0.232","null","letters/1.wav","","null","null","n-back-trial","0","2","T","2","0","0","0","","","",""
"audio-keyboard-response","256","1211877","0.0-1.0-1.7-1.233-0.233","1099","letters/5.wav","","32","1099","n-back-trial","1","2","T","3","0","1","0","","","",""
"audio-keyboard-response","257","1214395","0.0-1.0-1.7-1.234-0.234","1080","letters/1.wav","","32","1080","n-back-trial","1","2","T","4","0","1","0","","","",""
"audio-keyboard-response","258","1216907","0.0-1.0-1.7-1.235-0.235","1912","letters/5.wav","","32","1912","n-back-trial","1","2","T","5","0","1","0","","","",""
"audio-keyboard-response","259","1219427","0.0-1.0-1.7-1.236-0.236","null","letters/7.wav","","null","null","n-back-trial","0","2","NT","5","0","0","0","","","",""
"audio-keyboard-response","260","1221933","0.0-1.0-1.7-1.237-0.237","null","letters/5.wav","","null","null","n-back-trial","0","2","T","5","0","0","0","","","",""
"audio-keyboard-response","261","1224447","0.0-1.0-1.7-1.238-0.238","null","letters/5.wav","","null","null","n-back-trial","0","2","NT","5","0","0","0","","","",""
"audio-keyboard-response","262","1226958","0.0-1.0-1.7-1.239-0.239","null","letters/6.wav","","null","null","n-back-trial","0","2","NT","5","0","0","0","","","",""
"audio-keyboard-response","263","1229478","0.0-1.0-1.7-1.240-0.240","null","letters/4.wav","","null","null","n-back-trial","0","2","NT","5","0","0","0","","","",""
"audio-keyboard-response","264","1231998","0.0-1.0-1.7-1.241-0.241","null","letters/6.wav","","null","null","n-back-trial","0","2","T","5","0","0","0","","","",""
"audio-keyboard-response","265","1234518","0.0-1.0-1.7-1.242-0.242","429","letters/5.wav","","32","429","n-back-trial","1","2","NT","5","1","0","1","","","",""
"audio-keyboard-response","266","1237038","0.0-1.0-1.7-1.243-0.243","null","letters/8.wav","","null","null","n-back-trial","0","2","NT","5","1","0","0","","","",""
"audio-keyboard-response","267","1239549","0.0-1.0-1.7-1.244-0.244","1549","letters/5.wav","","32","1549","n-back-trial","1","2","T","6","1","1","0","","","",""
"audio-keyboard-response","268","1242069","0.0-1.0-1.7-1.245-0.245","null","letters/6.wav","","null","null","n-back-trial","0","2","NT","6","1","0","0","","","",""
"audio-keyboard-response","269","1244579","0.0-1.0-1.7-1.246-0.246","null","letters/2.wav","","null","null","n-back-trial","0","2","NT","6","1","0","0","","","",""
"audio-keyboard-response","270","1247089","0.0-1.0-1.7-1.247-0.247","null","letters/4.wav","","null","null","n-back-trial","0","2","NT","6","1","0","0","","","",""
"audio-keyboard-response","271","1249599","0.0-1.0-1.7-1.248-0.248","null","letters/7.wav","","null","null","n-back-trial","0","2","NT","6","1","0","0","","","",""
"audio-keyboard-response","272","1252119","0.0-1.0-1.7-1.249-0.249","null","letters/5.wav","","null","null","n-back-trial","0","2","NT","6","1","0","0","","","",""
"audio-keyboard-response","273","1254630","0.0-1.0-1.7-1.250-0.250","null","letters/2.wav","","null","null","n-back-trial","0","2","NT","6","1","0","0","","","",""
"audio-keyboard-response","274","1257139","0.0-1.0-1.7-1.251-0.251","null","letters/3.wav","","null","null","n-back-trial","0","2","NT","6","1","0","0","","","",""
"audio-keyboard-response","275","1259659","0.0-1.0-1.7-1.252-0.252","null","letters/5.wav","","null","null","n-back-trial","0","2","NT","6","1","0","0","","","",""
"audio-keyboard-response","276","1262180","0.0-1.0-1.7-1.253-0.253","null","letters/3.wav","","null","null","n-back-trial","0","2","T","6","1","0","0","","","",""
"audio-keyboard-response","277","1264700","0.0-1.0-1.7-1.254-0.254","651","letters/3.wav","","32","651","n-back-trial","1","2","NT","6","2","0","1","","","",""
"audio-keyboard-response","278","1267209","0.0-1.0-1.7-1.255-0.255","1240","letters/5.wav","","32","1240","n-back-trial","1","2","NT","6","3","0","1","","","",""
"audio-keyboard-response","279","1269730","0.0-1.0-1.7-1.256-0.256","null","letters/4.wav","","null","null","n-back-trial","0","2","NT","6","3","0","0","","","",""
"html-button-response","280","1271902","0.0-1.0-1.7-2.7","2169","<p>You may take a short break if you wish.</p><p>Click the button below when you are ready to continue.</p>","0","","","n-back-run-summary","","2","","","","","","0","6","3",""
"html-button-response","281","1272846","0.0-1.0-1.8-0.8","942","<p>You will now complete a <strong>2-back.</strong></p><p>Remember, this means that you should press SPACEBAR every time the sound you hear matches the one presented <strong>2</strong> position(s) previously.</p>","0","","","","","","","","","","","","","",""
"audio-keyboard-response","282","1275351","0.0-1.0-1.8-1.257-0.257","null","letters/2.wav","","null","null","n-back-trial","0","2","FIRSTS","0","0","0","0","","","",""
"audio-keyboard-response","283","1277871","0.0-1.0-1.8-1.258-0.258","null","letters/1.wav","","null","null","n-back-trial","0","2","FIRSTS","0","0","0","0","","","",""
"audio-keyboard-response","284","1280391","0.0-1.0-1.8-1.259-0.259","1232","letters/2.wav","","32","1232","n-back-trial","1","2","T","1","0","1","0","","","",""
"audio-keyboard-response","285","1282901","0.0-1.0-1.8-1.260-0.260","null","letters/6.wav","","null","null","n-back-trial","0","2","NT","1","0","0","0","","","",""
"audio-keyboard-response","286","1285421","0.0-1.0-1.8-1.261-0.261","1179","letters/2.wav","","32","1179","n-back-trial","1","2","T","2","0","1","0","","","",""
"audio-keyboard-response","287","1287941","0.0-1.0-1.8-1.262-0.262","null","letters/1.wav","","null","null","n-back-trial","0","2","NT","2","0","0","0","","","",""
"audio-keyboard-response","288","1290451","0.0-1.0-1.8-1.263-0.263","null","letters/2.wav","","null","null","n-back-trial","0","2","T","2","0","0","0","","","",""
"audio-keyboard-response","289","1292971","0.0-1.0-1.8-1.264-0.264","null","letters/8.wav","","null","null","n-back-trial","0","2","NT","2","0","0","0","","","",""
"audio-keyboard-response","290","1295482","0.0-1.0-1.8-1.265-0.265","null","letters/5.wav","","null","null","n-back-trial","0","2","NT","2","0","0","0","","","",""
"audio-keyboard-response","291","1298001","0.0-1.0-1.8-1.266-0.266","null","letters/7.wav","","null","null","n-back-trial","0","2","NT","2","0","0","0","","","",""
"audio-keyboard-response","292","1300519","0.0-1.0-1.8-1.267-0.267","2520","letters/5.wav","","32","2520","n-back-trial","1","2","T","3","0","1","0","","","",""
"audio-keyboard-response","293","1303022","0.0-1.0-1.8-1.268-0.268","null","letters/8.wav","","null","null","n-back-trial","0","2","NT","3","0","0","0","","","",""
"audio-keyboard-response","294","1305542","0.0-1.0-1.8-1.269-0.269","null","letters/6.wav","","null","null","n-back-trial","0","2","NT","3","0","0","0","","","",""
"audio-keyboard-response","295","1308052","0.0-1.0-1.8-1.270-0.270","989","letters/7.wav","","32","989","n-back-trial","1","2","NT","3","1","0","1","","","",""
"audio-keyboard-response","296","1310573","0.0-1.0-1.8-1.271-0.271","null","letters/7.wav","","null","null","n-back-trial","0","2","NT","3","1","0","0","","","",""
"audio-keyboard-response","297","1313083","0.0-1.0-1.8-1.272-0.272","null","letters/1.wav","","null","null","n-back-trial","0","2","NT","3","1","0","0","","","",""
"audio-keyboard-response","298","1315603","0.0-1.0-1.8-1.273-0.273","null","letters/3.wav","","null","null","n-back-trial","0","2","NT","3","1","0","0","","","",""
"audio-keyboard-response","299","1318108","0.0-1.0-1.8-1.274-0.274","1181","letters/1.wav","","32","1181","n-back-trial","1","2","T","4","1","1","0","","","",""
"audio-keyboard-response","300","1320613","0.0-1.0-1.8-1.275-0.275","null","letters/5.wav","","null","null","n-back-trial","0","2","NT","4","1","0","0","","","",""
"audio-keyboard-response","301","1323123","0.0-1.0-1.8-1.276-0.276","null","letters/1.wav","","null","null","n-back-trial","0","2","T","4","1","0","0","","","",""
"audio-keyboard-response","302","1325643","0.0-1.0-1.8-1.277-0.277","null","letters/1.wav","","null","null","n-back-trial","0","2","NT","4","1","0","0","","","",""
"audio-keyboard-response","303","1328154","0.0-1.0-1.8-1.278-0.278","null","letters/6.wav","","null","null","n-back-trial","0","2","NT","4","1","0","0","","","",""
"audio-keyboard-response","304","1330663","0.0-1.0-1.8-1.279-0.279","null","letters/4.wav","","null","null","n-back-trial","0","2","NT","4","1","0","0","","","",""
"audio-keyboard-response","305","1333183","0.0-1.0-1.8-1.280-0.280","null","letters/6.wav","","null","null","n-back-trial","0","2","T","4","1","0","0","","","",""
"audio-keyboard-response","306","1335694","0.0-1.0-1.8-1.281-0.281","null","letters/2.wav","","null","null","n-back-trial","0","2","NT","4","1","0","0","","","",""
"audio-keyboard-response","307","1338204","0.0-1.0-1.8-1.282-0.282","null","letters/6.wav","","null","null","n-back-trial","0","2","T","4","1","0","0","","","",""
"audio-keyboard-response","308","1340713","0.0-1.0-1.8-1.283-0.283","null","letters/4.wav","","null","null","n-back-trial","0","2","NT","4","1","0","0","","","",""
"audio-keyboard-response","309","1343224","0.0-1.0-1.8-1.284-0.284","null","letters/3.wav","","null","null","n-back-trial","0","2","NT","4","1","0","0","","","",""
"audio-keyboard-response","310","1345734","0.0-1.0-1.8-1.285-0.285","null","letters/4.wav","","null","null","n-back-trial","0","2","T","4","1","0","0","","","",""
"audio-keyboard-response","311","1348245","0.0-1.0-1.8-1.286-0.286","null","letters/6.wav","","null","null","n-back-trial","0","2","NT","4","1","0","0","","","",""
"audio-keyboard-response","312","1350765","0.0-1.0-1.8-1.287-0.287","941","letters/4.wav","","32","941","n-back-trial","1","2","T","5","1","1","0","","","",""
"audio-keyboard-response","313","1353285","0.0-1.0-1.8-1.288-0.288","null","letters/8.wav","","null","null","n-back-trial","0","2","NT","5","1","0","0","","","",""
"html-button-response","314","1355077","0.0-1.0-1.8-2.8","1791","<p>You may take a short break if you wish.</p><p>Click the button below when you are ready to continue.</p>","0","","","n-back-run-summary","","2","","","","","","0","5","1",""
"html-button-response","315","1355989","0.0-1.0-1.9-0.9","911","<p>You will now complete a <strong>2-back.</strong></p><p>Remember, this means that you should press SPACEBAR every time the sound you hear matches the one presented <strong>2</strong> position(s) previously.</p>","0","","","","","","","","","","","","","",""
"audio-keyboard-response","316","1358495","0.0-1.0-1.9-1.289-0.289","null","letters/7.wav","","null","null","n-back-trial","0","2","FIRSTS","0","0","0","0","","","",""
"audio-keyboard-response","317","1361015","0.0-1.0-1.9-1.290-0.290","null","letters/4.wav","","null","null","n-back-trial","0","2","FIRSTS","0","0","0","0","","","",""
"audio-keyboard-response","318","1363535","0.0-1.0-1.9-1.291-0.291","null","letters/6.wav","","null","null","n-back-trial","0","2","NT","0","0","0","0","","","",""
"audio-keyboard-response","319","1366045","0.0-1.0-1.9-1.292-0.292","null","letters/3.wav","","null","null","n-back-trial","0","2","NT","0","0","0","0","","","",""
"audio-keyboard-response","320","1368566","0.0-1.0-1.9-1.293-0.293","null","letters/6.wav","","null","null","n-back-trial","0","2","T","0","0","0","0","","","",""
"audio-keyboard-response","321","1371085","0.0-1.0-1.9-1.294-0.294","null","letters/3.wav","","null","null","n-back-trial","0","2","T","0","0","0","0","","","",""
"audio-keyboard-response","322","1373606","0.0-1.0-1.9-1.295-0.295","null","letters/5.wav","","null","null","n-back-trial","0","2","NT","0","0","0","0","","","",""
"audio-keyboard-response","323","1376126","0.0-1.0-1.9-1.296-0.296","null","letters/1.wav","","null","null","n-back-trial","0","2","NT","0","0","0","0","","","",""
"audio-keyboard-response","324","1378636","0.0-1.0-1.9-1.297-0.297","null","letters/8.wav","","null","null","n-back-trial","0","2","NT","0","0","0","0","","","",""
"audio-keyboard-response","325","1381156","0.0-1.0-1.9-1.298-0.298","null","letters/7.wav","","null","null","n-back-trial","0","2","NT","0","0","0","0","","","",""
"audio-keyboard-response","326","1383667","0.0-1.0-1.9-1.299-0.299","null","letters/3.wav","","null","null","n-back-trial","0","2","NT","0","0","0","0","","","",""
"audio-keyboard-response","327","1386186","0.0-1.0-1.9-1.300-0.300","null","letters/7.wav","","null","null","n-back-trial","0","2","T","0","0","0","0","","","",""
"audio-keyboard-response","328","1388697","0.0-1.0-1.9-1.301-0.301","null","letters/2.wav","","null","null","n-back-trial","0","2","NT","0","0","0","0","","","",""
"audio-keyboard-response","329","1391217","0.0-1.0-1.9-1.302-0.302","null","letters/7.wav","","null","null","n-back-trial","0","2","T","0","0","0","0","","","",""
"audio-keyboard-response","330","1393737","0.0-1.0-1.9-1.303-0.303","1160","letters/2.wav","","32","1160","n-back-trial","1","2","T","1","0","1","0","","","",""
"audio-keyboard-response","331","1396247","0.0-1.0-1.9-1.304-0.304","null","letters/5.wav","","null","null","n-back-trial","0","2","NT","1","0","0","0","","","",""
"audio-keyboard-response","332","1398764","0.0-1.0-1.9-1.305-0.305","1629","letters/2.wav","","32","1629","n-back-trial","1","2","T","2","0","1","0","","","",""
"audio-keyboard-response","333","1401288","0.0-1.0-1.9-1.306-0.306","null","letters/3.wav","","null","null","n-back-trial","0","2","NT","2","0","0","0","","","",""
"audio-keyboard-response","334","1403798","0.0-1.0-1.9-1.307-0.307","null","letters/7.wav","","null","null","n-back-trial","0","2","NT","2","0","0","0","","","",""
"audio-keyboard-response","335","1406318","0.0-1.0-1.9-1.308-0.308","2472","letters/8.wav","","32","2472","n-back-trial","1","2","NT","2","1","0","1","","","",""
"audio-keyboard-response","336","1408828","0.0-1.0-1.9-1.309-0.309","null","letters/1.wav","","null","null","n-back-trial","0","2","NT","2","1","0","0","","","",""
"audio-keyboard-response","337","1411348","0.0-1.0-1.9-1.310-0.310","null","letters/6.wav","","null","null","n-back-trial","0","2","NT","2","1","0","0","","","",""
"audio-keyboard-response","338","1413868","0.0-1.0-1.9-1.311-0.311","1648","letters/1.wav","","32","1648","n-back-trial","1","2","T","3","1","1","0","","","",""
"audio-keyboard-response","339","1416388","0.0-1.0-1.9-1.312-0.312","null","letters/5.wav","","null","null","n-back-trial","0","2","NT","3","1","0","0","","","",""
"audio-keyboard-response","340","1418909","0.0-1.0-1.9-1.313-0.313","1069","letters/1.wav","","32","1069","n-back-trial","1","2","T","4","1","1","0","","","",""
"audio-keyboard-response","341","1421418","0.0-1.0-1.9-1.314-0.314","null","letters/6.wav","","null","null","n-back-trial","0","2","NT","4","1","0","0","","","",""
"audio-keyboard-response","342","1423929","0.0-1.0-1.9-1.315-0.315","null","letters/5.wav","","null","null","n-back-trial","0","2","NT","4","1","0","0","","","",""
"audio-keyboard-response","343","1426439","0.0-1.0-1.9-1.316-0.316","null","letters/7.wav","","null","null","n-back-trial","0","2","NT","4","1","0","0","","","",""
"audio-keyboard-response","344","1428949","0.0-1.0-1.9-1.317-0.317","null","letters/2.wav","","null","null","n-back-trial","0","2","NT","4","1","0","0","","","",""
"audio-keyboard-response","345","1431469","0.0-1.0-1.9-1.318-0.318","null","letters/7.wav","","null","null","n-back-trial","0","2","T","4","1","0","0","","","",""
"audio-keyboard-response","346","1433979","0.0-1.0-1.9-1.319-0.319","null","letters/2.wav","","null","null","n-back-trial","0","2","T","4","1","0","0","","","",""
"audio-keyboard-response","347","1436499","0.0-1.0-1.9-1.320-0.320","null","letters/1.wav","","null","null","n-back-trial","0","2","NT","4","1","0","0","","","",""
"html-button-response","348","1437926","0.0-1.0-1.9-2.9","1425","<p>You may take a short break if you wish.</p><p>Click the button below when you are ready to continue.</p>","0","","","n-back-run-summary","","2","","","","","","0","4","1",""
"html-button-response","349","1439021","0.0-1.0-2.0","1095","<p>Thank you for your responses.</p><p>This concludes the auditory memory task.</p>","0","","","ANB-SUMMARY","","","","","","","","","","","1,2,3,2,2,2,3,2,2,2,2"
