"trial_type","trial_index","time_elapsed","internal_node_id","subject","rt","stimulus","key_press","responses","word","answer"
"pavlovia","0","6","0.0-0.0","6o2k6cn9law","","","","","",""
"html-keyboard-response","1","9827","0.0-1.0","6o2k6cn9law","9817.399999999907","<p>Welcome to the experiment. In the first part of the study you will hear a series of words. Please listen carefully to each word.</p><p>(Press any key to continue.)</p>","32","","",""
"html-keyboard-response","2","14735","0.0-2.0","6o2k6cn9law","4399.799999999814","<p>It is crucial that you pay attention to each word as you will be asked, after a short pause, to type the word that you heard. You will know when to begin typing when you see a text box on the screen. After typing the word that you heard, press Enter to proceed.</p><p>(Press any key to continue)</p>","32","","",""
"html-keyboard-response","3","17870","0.0-3.0","6o2k6cn9law","2621.5","<p>You will need to listen carefully to each word as they are difficult to understand. For this reason, please be as attentive as possible to each word.</p><p>When you are ready, press any key to begin the experiment.</p>","32","","",""
"html-keyboard-response","4","19899","0.0-4.0","6o2k6cn9law","null","<div id=""countdown"">***</div>","null","","",""
"audio-keyboard-response","5","20184","0.0-5.0","6o2k6cn9law","null","perceptual_learning_stimuli/t2/r_ton.wav","null","","",""
"survey-text","6","23399","0.0-6.0","6o2k6cn9law","3199.3000000002794","","","{""Q0"":""type""}","ton","type"
"html-keyboard-response","7","25922","0.0-7.0","6o2k6cn9law","null","<div id=""countdown"">***</div>","null","","",""
"audio-keyboard-response","8","26293","0.0-8.0","6o2k6cn9law","null","perceptual_learning_stimuli/t2/r_beg.wav","null","","",""
"survey-text","9","32294","0.0-9.0","6o2k6cn9law","5997.5","","","{""Q0"":""back""}","beg","back"
"html-keyboard-response","10","34823","0.0-10.0","6o2k6cn9law","null","<div id=""countdown"">***</div>","null","","",""
"audio-keyboard-response","11","35214","0.0-11.0","6o2k6cn9law","null","perceptual_learning_stimuli/t2/r_goon.wav","null","","",""
"survey-text","12","37182","0.0-12.0","6o2k6cn9law","1964.3999999999069","","","{""Q0"":""good""}","goon","good"
"html-keyboard-response","13","39703","0.0-13.0","6o2k6cn9law","null","<div id=""countdown"">***</div>","null","","",""
"audio-keyboard-response","14","40014","0.0-14.0","6o2k6cn9law","null","perceptual_learning_stimuli/t2/r_dish.wav","null","","",""
"survey-text","15","41885","0.0-15.0","6o2k6cn9law","1868","","","{""Q0"":""be""}","dish","be"
"html-keyboard-response","16","44414","0.0-16.0","6o2k6cn9law","null","<div id=""countdown"">***</div>","null","","",""
"audio-keyboard-response","17","44734","0.0-17.0","6o2k6cn9law","null","perceptual_learning_stimuli/t2/r_leak.wav","null","","",""
"survey-text","18","50598","0.0-18.0","6o2k6cn9law","5860","","","{""Q0"":""oil""}","leak","oil"
"html-keyboard-response","19","53124","0.0-19.0","6o2k6cn9law","null","<div id=""countdown"">***</div>","null","","",""
"audio-keyboard-response","20","53555","0.0-20.0","6o2k6cn9law","null","perceptual_learning_stimuli/t2/r_black.wav","null","","",""
"survey-text","21","55406","0.0-21.0","6o2k6cn9law","1847.1999999997206","","","{""Q0"":""book""}","black","book"
"html-keyboard-response","22","57924","0.0-22.0","6o2k6cn9law","null","<div id=""countdown"">***</div>","null","","",""
"audio-keyboard-response","23","58155","0.0-23.0","6o2k6cn9law","null","perceptual_learning_stimuli/t2/r_could.wav","null","","",""
"survey-text","24","61670","0.0-24.0","6o2k6cn9law","3510.9000000003725","","","{""Q0"":""could""}","could","could"
"html-keyboard-response","25","64185","0.0-25.0","6o2k6cn9law","null","<div id=""countdown"">***</div>","null","","",""
"audio-keyboard-response","26","64445","0.0-26.0","6o2k6cn9law","null","perceptual_learning_stimuli/t2/r_wood.wav","null","","",""
"survey-text","27","66014","0.0-27.0","6o2k6cn9law","1564.8999999999069","","","{""Q0"":""would""}","wood","would"
"html-keyboard-response","28","68534","0.0-28.0","6o2k6cn9law","null","<div id=""countdown"">***</div>","null","","",""
"audio-keyboard-response","29","68826","0.0-29.0","6o2k6cn9law","null","perceptual_learning_stimuli/t2/r_need.wav","null","","",""
"survey-text","30","70838","0.0-30.0","6o2k6cn9law","2008.7999999998137","","","{""Q0"":""did""}","need","did"
"html-keyboard-response","31","73355","0.0-31.0","6o2k6cn9law","null","<div id=""countdown"">***</div>","null","","",""
"audio-keyboard-response","32","73736","0.0-32.0","6o2k6cn9law","null","perceptual_learning_stimuli/t2/r_thick.wav","null","","",""
"survey-text","33","76510","0.0-33.0","6o2k6cn9law","2770.1999999997206","","","{""Q0"":""sick""}","thick","sick"
"html-keyboard-response","34","79034","0.0-34.0","6o2k6cn9law","null","<div id=""countdown"">***</div>","null","","",""
"audio-keyboard-response","35","79436","0.0-35.0","6o2k6cn9law","null","perceptual_learning_stimuli/t2/r_ridge.wav","null","","",""
"survey-text","36","82206","0.0-36.0","6o2k6cn9law","2766.0999999996275","","","{""Q0"":""""}","ridge",""
"html-keyboard-response","37","84735","0.0-37.0","6o2k6cn9law","null","<div id=""countdown"">***</div>","null","","",""
"audio-keyboard-response","38","85047","0.0-38.0","6o2k6cn9law","null","perceptual_learning_stimuli/t2/r_rap.wav","null","","",""
"survey-text","39","86190","0.0-39.0","6o2k6cn9law","1140","","","{""Q0"":""""}","rap",""
"html-keyboard-response","40","88716","0.0-40.0","6o2k6cn9law","null","<div id=""countdown"">***</div>","null","","",""
"audio-keyboard-response","41","88977","0.0-41.0","6o2k6cn9law","null","perceptual_learning_stimuli/t2/r_gem.wav","null","","",""
"survey-text","42","91750","0.0-42.0","6o2k6cn9law","2769.600000000093","","","{""Q0"":""drone""}","gem","drone"
"html-keyboard-response","43","94266","0.0-43.0","6o2k6cn9law","null","<div id=""countdown"">***</div>","null","","",""
"audio-keyboard-response","44","94547","0.0-44.0","6o2k6cn9law","null","perceptual_learning_stimuli/t2/r_dot.wav","null","","",""
"survey-text","45","97238","0.0-45.0","6o2k6cn9law","2687.2000000001863","","","{""Q0"":""gut""}","dot","gut"
"html-keyboard-response","46","99766","0.0-46.0","6o2k6cn9law","null","<div id=""countdown"">***</div>","null","","",""
"audio-keyboard-response","47","100127","0.0-47.0","6o2k6cn9law","null","perceptual_learning_stimuli/t2/r_beach.wav","null","","",""
"survey-text","48","101862","0.0-48.0","6o2k6cn9law","1731","","","{""Q0"":""good""}","beach","good"
"html-keyboard-response","49","104377","0.0-49.0","6o2k6cn9law","null","<div id=""countdown"">***</div>","null","","",""
"audio-keyboard-response","50","104728","0.0-50.0","6o2k6cn9law","null","perceptual_learning_stimuli/t2/r_soon.wav","null","","",""
"survey-text","51","108558","0.0-51.0","6o2k6cn9law","3826.6999999997206","","","{""Q0"":""smart""}","soon","smart"
"html-keyboard-response","52","111067","0.0-52.0","6o2k6cn9law","null","<div id=""countdown"">***</div>","null","","",""
"audio-keyboard-response","53","111238","0.0-53.0","6o2k6cn9law","null","perceptual_learning_stimuli/t2/r_tea.wav","null","","",""
"survey-text","54","112909","0.0-54.0","6o2k6cn9law","1668.2999999998137","","","{""Q0"":""two""}","tea","two"
"html-keyboard-response","55","115417","0.0-55.0","6o2k6cn9law","null","<div id=""countdown"">***</div>","null","","",""
"audio-keyboard-response","56","115738","0.0-56.0","6o2k6cn9law","null","perceptual_learning_stimuli/t2/r_pump.wav","null","","",""
"survey-text","57","118486","0.0-57.0","6o2k6cn9law","2745.600000000093","","","{""Q0"":""tarp""}","pump","tarp"
"html-keyboard-response","58","121008","0.0-58.0","6o2k6cn9law","null","<div id=""countdown"">***</div>","null","","",""
"audio-keyboard-response","59","121378","0.0-59.0","6o2k6cn9law","null","perceptual_learning_stimuli/t2/r_beak.wav","null","","",""
"survey-text","60","126790","0.0-60.0","6o2k6cn9law","5409.300000000279","","","{""Q0"":""bok""}","beak","bok"
"html-keyboard-response","61","129313","0.0-61.0","6o2k6cn9law","null","<div id=""countdown"">***</div>","null","","",""
"audio-keyboard-response","62","129549","0.0-62.0","6o2k6cn9law","null","perceptual_learning_stimuli/t2/r_fee.wav","null","","",""
"survey-text","63","135854","0.0-63.0","6o2k6cn9law","6301.399999999907","","","{""Q0"":""sheep""}","fee","sheep"
"html-keyboard-response","64","138369","0.0-64.0","6o2k6cn9law","null","<div id=""countdown"">***</div>","null","","",""
"audio-keyboard-response","65","138640","0.0-65.0","6o2k6cn9law","null","perceptual_learning_stimuli/t2/r_cop.wav","null","","",""
"survey-text","66","140478","0.0-66.0","6o2k6cn9law","1834.9000000003725","","","{""Q0"":""type""}","cop","type"
"html-keyboard-response","67","142999","0.0-67.0","6o2k6cn9law","null","<div id=""countdown"">***</div>","null","","",""
"audio-keyboard-response","68","143280","0.0-68.0","6o2k6cn9law","null","perceptual_learning_stimuli/t2/r_mud.wav","null","","",""
"survey-text","69","144974","0.0-69.0","6o2k6cn9law","1690.6000000000931","","","{""Q0"":""red""}","mud","red"
"html-keyboard-response","70","147499","0.0-70.0","6o2k6cn9law","null","<div id=""countdown"">***</div>","null","","",""
"audio-keyboard-response","71","147940","0.0-71.0","6o2k6cn9law","null","perceptual_learning_stimuli/t2/r_crept.wav","null","","",""
"survey-text","72","150118","0.0-72.0","6o2k6cn9law","2175.5","","","{""Q0"":""dreamt""}","crept","dreamt"
"html-keyboard-response","73","152639","0.0-73.0","6o2k6cn9law","null","<div id=""countdown"">***</div>","null","","",""
"audio-keyboard-response","74","152930","0.0-74.0","6o2k6cn9law","null","perceptual_learning_stimuli/t2/r_moon.wav","null","","",""
"survey-text","75","155910","0.0-75.0","6o2k6cn9law","2976.100000000093","","","{""Q0"":""bullet""}","moon","bullet"
"html-keyboard-response","76","158440","0.0-76.0","6o2k6cn9law","null","<div id=""countdown"">***</div>","null","","",""
"audio-keyboard-response","77","158600","0.0-77.0","6o2k6cn9law","null","perceptual_learning_stimuli/t2/r_key.wav","null","","",""
"survey-text","78","165838","0.0-78.0","6o2k6cn9law","7235.200000000186","","","{""Q0"":""pee""}","key","pee"
"html-keyboard-response","79","168346","0.0-79.0","6o2k6cn9law","null","<div id=""countdown"">***</div>","null","","",""
"audio-keyboard-response","80","168661","0.0-80.0","6o2k6cn9law","null","perceptual_learning_stimuli/t2/r_hush.wav","null","","",""
"survey-text","81","172246","0.0-81.0","6o2k6cn9law","3580.7999999998137","","","{""Q0"":""crush""}","hush","crush"
"html-keyboard-response","82","174760","0.0-82.0","6o2k6cn9law","null","<div id=""countdown"">***</div>","null","","",""
"audio-keyboard-response","83","175242","0.0-83.0","6o2k6cn9law","null","perceptual_learning_stimuli/t2/r_stunt.wav","null","","",""
"survey-text","84","176974","0.0-84.0","6o2k6cn9law","1728.8000000002794","","","{""Q0"":""start""}","stunt","start"
"html-keyboard-response","85","179496","0.0-85.0","6o2k6cn9law","null","<div id=""countdown"">***</div>","null","","",""
"audio-keyboard-response","86","179771","0.0-86.0","6o2k6cn9law","null","perceptual_learning_stimuli/t2/r_rot.wav","null","","",""
"survey-text","87","182190","0.0-87.0","6o2k6cn9law","2415.5","","","{""Q0"":""want""}","rot","want"
"html-keyboard-response","88","184731","0.0-88.0","6o2k6cn9law","null","<div id=""countdown"">***</div>","null","","",""
"audio-keyboard-response","89","185082","0.0-89.0","6o2k6cn9law","null","perceptual_learning_stimuli/t2/r_rude.wav","null","","",""
"survey-text","90","185742","0.0-90.0","6o2k6cn9law","656.2000000001863","","","{""Q0"":""""}","rude",""
"html-keyboard-response","91","188273","0.0-91.0","6o2k6cn9law","null","<div id=""countdown"">***</div>","null","","",""
"audio-keyboard-response","92","188692","0.0-92.0","6o2k6cn9law","null","perceptual_learning_stimuli/t2/r_bless.wav","null","","",""
"survey-text","93","190294","0.0-93.0","6o2k6cn9law","1599.2000000001863","","","{""Q0"":""""}","bless",""
"html-keyboard-response","94","192812","0.0-94.0","6o2k6cn9law","null","<div id=""countdown"">***</div>","null","","",""
"audio-keyboard-response","95","193252","0.0-95.0","6o2k6cn9law","null","perceptual_learning_stimuli/t2/r_block.wav","null","","",""
"survey-text","96","195462","0.0-96.0","6o2k6cn9law","2207.3000000002794","","","{""Q0"":""book""}","block","book"
"html-keyboard-response","97","197982","0.0-97.0","6o2k6cn9law","null","<div id=""countdown"">***</div>","null","","",""
"audio-keyboard-response","98","198223","0.0-98.0","6o2k6cn9law","null","perceptual_learning_stimuli/t2/r_pad.wav","null","","",""
"survey-text","99","200782","0.0-99.0","6o2k6cn9law","2555.7000000001863","","","{""Q0"":""pad""}","pad","pad"
"html-keyboard-response","100","203312","0.0-100.0","6o2k6cn9law","null","<div id=""countdown"">***</div>","null","","",""
"audio-keyboard-response","101","203643","0.0-101.0","6o2k6cn9law","null","perceptual_learning_stimuli/t2/r_night.wav","null","","",""
"survey-text","102","205029","0.0-102.0","6o2k6cn9law","1384.2999999998137","","","{""Q0"":""night""}","night","night"
"html-keyboard-response","103","207552","0.0-103.0","6o2k6cn9law","null","<div id=""countdown"">***</div>","null","","",""
"audio-keyboard-response","104","207993","0.0-104.0","6o2k6cn9law","null","perceptual_learning_stimuli/t2/r_slick.wav","null","","",""
"survey-text","105","209830","0.0-105.0","6o2k6cn9law","1833.1000000000931","","","{""Q0"":""slick""}","slick","slick"
"html-keyboard-response","106","212352","0.0-106.0","6o2k6cn9law","null","<div id=""countdown"">***</div>","null","","",""
"audio-keyboard-response","107","212593","0.0-107.0","6o2k6cn9law","null","perceptual_learning_stimuli/t2/r_ought.wav","null","","",""
"survey-text","108","214462","0.0-108.0","6o2k6cn9law","1864.8999999999069","","","{""Q0"":""out""}","ought","out"
"html-keyboard-response","109","217003","0.0-109.0","6o2k6cn9law","null","<div id=""countdown"">***</div>","null","","",""
"audio-keyboard-response","110","217323","0.0-110.0","6o2k6cn9law","null","perceptual_learning_stimuli/t2/r_please.wav","null","","",""
"survey-text","111","218046","0.0-111.0","6o2k6cn9law","719.3000000002794","","","{""Q0"":""""}","please",""
"html-keyboard-response","112","220558","0.0-112.0","6o2k6cn9law","null","<div id=""countdown"">***</div>","null","","",""
"audio-keyboard-response","113","220794","0.0-113.0","6o2k6cn9law","null","perceptual_learning_stimuli/t2/r_team.wav","null","","",""
"survey-text","114","221446","0.0-114.0","6o2k6cn9law","649.8000000002794","","","{""Q0"":""""}","team",""
"html-keyboard-response","115","223979","0.0-115.0","6o2k6cn9law","null","<div id=""countdown"">***</div>","null","","",""
"audio-keyboard-response","116","224324","0.0-116.0","6o2k6cn9law","null","perceptual_learning_stimuli/t2/r_jog.wav","null","","",""
"survey-text","117","233374","0.0-117.0","6o2k6cn9law","9047.5","","","{""Q0"":""jump""}","jog","jump"
"html-keyboard-response","118","235894","0.0-118.0","6o2k6cn9law","null","<div id=""countdown"">***</div>","null","","",""
"audio-keyboard-response","119","236225","0.0-119.0","6o2k6cn9law","null","perceptual_learning_stimuli/t2/r_said.wav","null","","",""
"survey-text","120","246398","0.0-120.0","6o2k6cn9law","10169.700000000186","","","{""Q0"":""""}","said",""
"html-keyboard-response","121","248915","0.0-121.0","6o2k6cn9law","null","<div id=""countdown"">***</div>","null","","",""
"audio-keyboard-response","122","249156","0.0-122.0","6o2k6cn9law","null","perceptual_learning_stimuli/t2/r_pass.wav","null","","",""
"survey-text","123","252774","0.0-123.0","6o2k6cn9law","3614.8000000002794","","","{""Q0"":""tap""}","pass","tap"
"html-keyboard-response","124","255305","0.0-124.0","6o2k6cn9law","null","<div id=""countdown"">***</div>","null","","",""
"audio-keyboard-response","125","255546","0.0-125.0","6o2k6cn9law","null","perceptual_learning_stimuli/t2/r_tap.wav","null","","",""
"survey-text","126","257318","0.0-126.0","6o2k6cn9law","1768.7000000001863","","","{""Q0"":""tap""}","tap","tap"
"html-keyboard-response","127","259835","0.0-127.0","6o2k6cn9law","null","<div id=""countdown"">***</div>","null","","",""
"audio-keyboard-response","128","260206","0.0-128.0","6o2k6cn9law","null","perceptual_learning_stimuli/t2/r_draw.wav","null","","",""
"survey-text","129","262934","0.0-129.0","6o2k6cn9law","2725.600000000093","","","{""Q0"":""door""}","draw","door"
"html-keyboard-response","130","265456","0.0-130.0","6o2k6cn9law","null","<div id=""countdown"">***</div>","null","","",""
"audio-keyboard-response","131","265776","0.0-131.0","6o2k6cn9law","null","perceptual_learning_stimuli/t2/r_your.wav","null","","",""
"survey-text","132","267846","0.0-132.0","6o2k6cn9law","2066.600000000093","","","{""Q0"":""your""}","your","your"
"html-keyboard-response","133","270366","0.0-133.0","6o2k6cn9law","null","<div id=""countdown"">***</div>","null","","",""
"audio-keyboard-response","134","270626","0.0-134.0","6o2k6cn9law","null","perceptual_learning_stimuli/t2/r_pawn.wav","null","","",""
"survey-text","135","270942","0.0-135.0","6o2k6cn9law","312.29999999981374","","","{""Q0"":""""}","pawn",""
"html-keyboard-response","136","273456","0.0-136.0","6o2k6cn9law","null","<div id=""countdown"">***</div>","null","","",""
"audio-keyboard-response","137","273797","0.0-137.0","6o2k6cn9law","null","perceptual_learning_stimuli/t2/r_bus.wav","null","","",""
"survey-text","138","276918","0.0-138.0","6o2k6cn9law","3117","","","{""Q0"":""bus""}","bus","bus"
"html-keyboard-response","139","279447","0.0-139.0","6o2k6cn9law","null","<div id=""countdown"">***</div>","null","","",""
"audio-keyboard-response","140","279887","0.0-140.0","6o2k6cn9law","null","perceptual_learning_stimuli/t2/r_fresh.wav","null","","",""
"survey-text","141","281678","0.0-141.0","6o2k6cn9law","1787.6000000000931","","","{""Q0"":""fresh""}","fresh","fresh"
"html-keyboard-response","142","284186","0.0-142.0","6o2k6cn9law","null","<div id=""countdown"">***</div>","null","","",""
"audio-keyboard-response","143","284408","0.0-143.0","6o2k6cn9law","null","perceptual_learning_stimuli/t2/r_pin.wav","null","","",""
"survey-text","144","287030","0.0-144.0","6o2k6cn9law","2618.5","","","{""Q0"":""dip""}","pin","dip"
"html-keyboard-response","145","289552","0.0-145.0","6o2k6cn9law","null","<div id=""countdown"">***</div>","null","","",""
"audio-keyboard-response","146","289858","0.0-146.0","6o2k6cn9law","null","perceptual_learning_stimuli/t2/r_knock.wav","null","","",""
"survey-text","147","294230","0.0-147.0","6o2k6cn9law","4369","","","{""Q0"":""left""}","knock","left"
"html-keyboard-response","148","296738","0.0-148.0","6o2k6cn9law","null","<div id=""countdown"">***</div>","null","","",""
"audio-keyboard-response","149","297238","0.0-149.0","6o2k6cn9law","null","perceptual_learning_stimuli/t2/r_split.wav","null","","",""
"survey-text","150","301590","0.0-150.0","6o2k6cn9law","4347.699999999721","","","{""Q0"":""squid""}","split","squid"
"html-keyboard-response","151","304118","0.0-151.0","6o2k6cn9law","null","<div id=""countdown"">***</div>","null","","",""
"audio-keyboard-response","152","304409","0.0-152.0","6o2k6cn9law","null","perceptual_learning_stimuli/t2/r_chip.wav","null","","",""
"survey-text","153","308814","0.0-153.0","6o2k6cn9law","4401.199999999721","","","{""Q0"":""s[it""}","chip","s[it"
"html-keyboard-response","154","311334","0.0-154.0","6o2k6cn9law","null","<div id=""countdown"">***</div>","null","","",""
"audio-keyboard-response","155","311589","0.0-155.0","6o2k6cn9law","null","perceptual_learning_stimuli/t2/r_wheat.wav","null","","",""
"survey-text","156","313614","0.0-156.0","6o2k6cn9law","2021.5999999996275","","","{""Q0"":""read""}","wheat","read"
"html-keyboard-response","157","316139","0.0-157.0","6o2k6cn9law","null","<div id=""countdown"">***</div>","null","","",""
"audio-keyboard-response","158","316540","0.0-158.0","6o2k6cn9law","null","perceptual_learning_stimuli/t2/r_hunch.wav","null","","",""
"survey-text","159","320166","0.0-159.0","6o2k6cn9law","3622.600000000093","","","{""Q0"":""hunt""}","hunch","hunt"
"html-keyboard-response","160","322689","0.0-160.0","6o2k6cn9law","null","<div id=""countdown"">***</div>","null","","",""
"audio-keyboard-response","161","323220","0.0-161.0","6o2k6cn9law","null","perceptual_learning_stimuli/t2/r_fluff.wav","null","","",""
"survey-text","162","328430","0.0-162.0","6o2k6cn9law","5206.4000000003725","","","{""Q0"":""fluff""}","fluff","fluff"
"html-keyboard-response","163","330959","0.0-163.0","6o2k6cn9law","null","<div id=""countdown"">***</div>","null","","",""
"audio-keyboard-response","164","331280","0.0-164.0","6o2k6cn9law","null","perceptual_learning_stimuli/t2/r_weak.wav","null","","",""
"survey-text","165","331862","0.0-165.0","6o2k6cn9law","578","","","{""Q0"":""""}","weak",""
"html-keyboard-response","166","334385","0.0-166.0","6o2k6cn9law","null","<div id=""countdown"">***</div>","null","","",""
"audio-keyboard-response","167","334681","0.0-167.0","6o2k6cn9law","null","perceptual_learning_stimuli/t2/r_saw.wav","null","","",""
"survey-text","168","335198","0.0-168.0","6o2k6cn9law","513.8000000002794","","","{""Q0"":""""}","saw",""
"html-keyboard-response","169","337720","0.0-169.0","6o2k6cn9law","null","<div id=""countdown"">***</div>","null","","",""
"audio-keyboard-response","170","338241","0.0-170.0","6o2k6cn9law","null","perceptual_learning_stimuli/t2/r_blast.wav","null","","",""
"survey-text","171","340878","0.0-171.0","6o2k6cn9law","2633.600000000093","","","{""Q0"":""blessed""}","blast","blessed"
"html-keyboard-response","172","343410","0.0-172.0","6o2k6cn9law","null","<div id=""countdown"">***</div>","null","","",""
"audio-keyboard-response","173","343761","0.0-173.0","6o2k6cn9law","null","perceptual_learning_stimuli/t2/r_sheep.wav","null","","",""
"survey-text","174","346334","0.0-174.0","6o2k6cn9law","2569.2000000001863","","","{""Q0"":""sheep""}","sheep","sheep"
"html-keyboard-response","175","348856","0.0-175.0","6o2k6cn9law","null","<div id=""countdown"">***</div>","null","","",""
"audio-keyboard-response","176","349232","0.0-176.0","6o2k6cn9law","null","perceptual_learning_stimuli/t2/r_match.wav","null","","",""
"survey-text","177","350982","0.0-177.0","6o2k6cn9law","1746.8999999999069","","","{""Q0"":""inch""}","match","inch"
"html-keyboard-response","178","353521","0.0-178.0","6o2k6cn9law","null","<div id=""countdown"">***</div>","null","","",""
"audio-keyboard-response","179","353952","0.0-179.0","6o2k6cn9law","null","perceptual_learning_stimuli/t2/r_booth.wav","null","","",""
"survey-text","180","356381","0.0-180.0","6o2k6cn9law","2426.600000000093","","","{""Q0"":""bus""}","booth","bus"
"html-keyboard-response","181","358911","0.0-181.0","6o2k6cn9law","null","<div id=""countdown"">***</div>","null","","",""
"audio-keyboard-response","182","359201","0.0-182.0","6o2k6cn9law","null","perceptual_learning_stimuli/t2/r_head.wav","null","","",""
"survey-text","183","360285","0.0-183.0","6o2k6cn9law","1080.5","","","{""Q0"":""head""}","head","head"
"html-keyboard-response","184","362811","0.0-184.0","6o2k6cn9law","null","<div id=""countdown"">***</div>","null","","",""
"audio-keyboard-response","185","363092","0.0-185.0","6o2k6cn9law","null","perceptual_learning_stimuli/t2/r_path.wav","null","","",""
"survey-text","186","364926","0.0-186.0","6o2k6cn9law","1830.3999999999069","","","{""Q0"":""task""}","path","task"
"html-keyboard-response","187","367461","0.0-187.0","6o2k6cn9law","null","<div id=""countdown"">***</div>","null","","",""
"audio-keyboard-response","188","367772","0.0-188.0","6o2k6cn9law","null","perceptual_learning_stimuli/t2/r_hop.wav","null","","",""
"survey-text","189","369845","0.0-189.0","6o2k6cn9law","2069.899999999907","","","{""Q0"":""hop""}","hop","hop"
"html-keyboard-response","190","372381","0.0-190.0","6o2k6cn9law","null","<div id=""countdown"">***</div>","null","","",""
"audio-keyboard-response","191","372722","0.0-191.0","6o2k6cn9law","null","perceptual_learning_stimuli/t2/r_fool.wav","null","","",""
"survey-text","192","374549","0.0-192.0","6o2k6cn9law","1823.8000000002794","","","{""Q0"":""slip""}","fool","slip"
"html-keyboard-response","193","377062","0.0-193.0","6o2k6cn9law","null","<div id=""countdown"">***</div>","null","","",""
"audio-keyboard-response","194","377552","0.0-194.0","6o2k6cn9law","null","perceptual_learning_stimuli/t2/r_thresh.wav","null","","",""
"survey-text","195","379077","0.0-195.0","6o2k6cn9law","1521.2999999998137","","","{""Q0"":""fresh""}","thresh","fresh"
"html-keyboard-response","196","381582","0.0-196.0","6o2k6cn9law","null","<div id=""countdown"">***</div>","null","","",""
"audio-keyboard-response","197","381832","0.0-197.0","6o2k6cn9law","null","perceptual_learning_stimuli/t2/r_kid.wav","null","","",""
"survey-text","198","382709","0.0-198.0","6o2k6cn9law","873.1000000000931","","","{""Q0"":""""}","kid",""
"html-keyboard-response","199","385222","0.0-199.0","6o2k6cn9law","null","<div id=""countdown"">***</div>","null","","",""
"audio-keyboard-response","200","385553","0.0-200.0","6o2k6cn9law","null","perceptual_learning_stimuli/t2/r_cheek.wav","null","","",""
"survey-text","201","387430","0.0-201.0","6o2k6cn9law","1873.1999999997206","","","{""Q0"":""""}","cheek",""
"html-keyboard-response","202","389942","0.0-202.0","6o2k6cn9law","null","<div id=""countdown"">***</div>","null","","",""
"audio-keyboard-response","203","390313","0.0-203.0","6o2k6cn9law","null","perceptual_learning_stimuli/t2/r_shine.wav","null","","",""
"survey-text","204","392949","0.0-204.0","6o2k6cn9law","2632.399999999907","","","{""Q0"":""""}","shine",""
"html-keyboard-response","205","395462","0.0-205.0","6o2k6cn9law","null","<div id=""countdown"">***</div>","null","","",""
"audio-keyboard-response","206","395693","0.0-206.0","6o2k6cn9law","null","perceptual_learning_stimuli/t2/r_chew.wav","null","","",""
"survey-text","207","397557","0.0-207.0","6o2k6cn9law","1860.2000000001863","","","{""Q0"":""""}","chew",""
"html-keyboard-response","208","400073","0.0-208.0","6o2k6cn9law","null","<div id=""countdown"">***</div>","null","","",""
"audio-keyboard-response","209","400364","0.0-209.0","6o2k6cn9law","null","perceptual_learning_stimuli/t2/r_edge.wav","null","","",""
"survey-text","210","400997","0.0-210.0","6o2k6cn9law","630","","","{""Q0"":""""}","edge",""
"html-keyboard-response","211","403533","0.0-211.0","6o2k6cn9law","null","<div id=""countdown"">***</div>","null","","",""
"audio-keyboard-response","212","403824","0.0-212.0","6o2k6cn9law","null","perceptual_learning_stimuli/t2/r_chop.wav","null","","",""
"survey-text","213","406461","0.0-213.0","6o2k6cn9law","2633.600000000093","","","{""Q0"":""sharp""}","chop","sharp"
"html-keyboard-response","214","408983","0.0-214.0","6o2k6cn9law","null","<div id=""countdown"">***</div>","null","","",""
"audio-keyboard-response","215","409274","0.0-215.0","6o2k6cn9law","null","perceptual_learning_stimuli/t2/r_cause.wav","null","","",""
"survey-text","216","410726","0.0-216.0","6o2k6cn9law","1447.5","","","{""Q0"":""close""}","cause","close"
"html-keyboard-response","217","413243","0.0-217.0","6o2k6cn9law","null","<div id=""countdown"">***</div>","null","","",""
"audio-keyboard-response","218","413604","0.0-218.0","6o2k6cn9law","null","perceptual_learning_stimuli/t2/r_fog.wav","null","","",""
"survey-text","219","416302","0.0-219.0","6o2k6cn9law","2693.5","","","{""Q0"":""""}","fog",""
"html-keyboard-response","220","418824","0.0-220.0","6o2k6cn9law","null","<div id=""countdown"">***</div>","null","","",""
"audio-keyboard-response","221","419275","0.0-221.0","6o2k6cn9law","null","perceptual_learning_stimuli/t2/r_gift.wav","null","","",""
"survey-text","222","422118","0.0-222.0","6o2k6cn9law","2838.899999999907","","","{""Q0"":""lift""}","gift","lift"
"html-keyboard-response","223","424644","0.0-223.0","6o2k6cn9law","null","<div id=""countdown"">***</div>","null","","",""
"audio-keyboard-response","224","425075","0.0-224.0","6o2k6cn9law","null","perceptual_learning_stimuli/t2/r_flute.wav","null","","",""
"survey-text","225","425486","0.0-225.0","6o2k6cn9law","406.60000000009313","","","{""Q0"":""""}","flute",""
"html-keyboard-response","226","428005","0.0-226.0","6o2k6cn9law","null","<div id=""countdown"">***</div>","null","","",""
"audio-keyboard-response","227","428605","0.0-227.0","6o2k6cn9law","null","perceptual_learning_stimuli/t2/r_cloak.wav","null","","",""
"survey-text","228","428774","0.0-228.0","6o2k6cn9law","165","","","{""Q0"":""""}","cloak",""
"html-keyboard-response","229","431290","0.0-229.0","6o2k6cn9law","null","<div id=""countdown"">***</div>","null","","",""
"audio-keyboard-response","230","431555","0.0-230.0","6o2k6cn9law","null","perceptual_learning_stimuli/t2/r_peg.wav","null","","",""
"survey-text","231","432286","0.0-231.0","6o2k6cn9law","726.3999999999069","","","{""Q0"":""""}","peg",""
"html-keyboard-response","232","434800","0.0-232.0","6o2k6cn9law","null","<div id=""countdown"">***</div>","null","","",""
"audio-keyboard-response","233","435116","0.0-233.0","6o2k6cn9law","null","perceptual_learning_stimuli/t2/r_tooth.wav","null","","",""
"survey-text","234","435941","0.0-234.0","6o2k6cn9law","821.8999999999069","","","{""Q0"":""""}","tooth",""
"html-keyboard-response","235","438451","0.0-235.0","6o2k6cn9law","null","<div id=""countdown"">***</div>","null","","",""
"audio-keyboard-response","236","438896","0.0-236.0","6o2k6cn9law","null","perceptual_learning_stimuli/t2/r_steep.wav","null","","",""
"survey-text","237","442078","0.0-237.0","6o2k6cn9law","3177.7000000001863","","","{""Q0"":""steep""}","steep","steep"
"html-keyboard-response","238","444606","0.0-238.0","6o2k6cn9law","null","<div id=""countdown"">***</div>","null","","",""
"audio-keyboard-response","239","445076","0.0-239.0","6o2k6cn9law","null","perceptual_learning_stimuli/t2/r_green.wav","null","","",""
"survey-text","240","445958","0.0-240.0","6o2k6cn9law","877.3999999999069","","","{""Q0"":""""}","green",""
"html-keyboard-response","241","448487","0.0-241.0","6o2k6cn9law","null","<div id=""countdown"">***</div>","null","","",""
"audio-keyboard-response","242","448796","0.0-242.0","6o2k6cn9law","null","perceptual_learning_stimuli/t2/r_shin.wav","null","","",""
"survey-text","243","452334","0.0-243.0","6o2k6cn9law","3533.7000000001863","","","{""Q0"":""ship""}","shin","ship"
"html-keyboard-response","244","454856","0.0-244.0","6o2k6cn9law","null","<div id=""countdown"">***</div>","null","","",""
"audio-keyboard-response","245","455157","0.0-245.0","6o2k6cn9law","null","perceptual_learning_stimuli/t2/r_hip.wav","null","","",""
"survey-text","246","457726","0.0-246.0","6o2k6cn9law","2564.899999999907","","","{""Q0"":""hit""}","hip","hit"
"html-keyboard-response","247","460257","0.0-247.0","6o2k6cn9law","null","<div id=""countdown"">***</div>","null","","",""
"audio-keyboard-response","248","460687","0.0-248.0","6o2k6cn9law","null","perceptual_learning_stimuli/t2/r_cloth.wav","null","","",""
"survey-text","249","461830","0.0-249.0","6o2k6cn9law","1139.4000000003725","","","{""Q0"":""""}","cloth",""
"html-keyboard-response","250","464367","0.0-250.0","6o2k6cn9law","null","<div id=""countdown"">***</div>","null","","",""
"audio-keyboard-response","251","464657","0.0-251.0","6o2k6cn9law","null","perceptual_learning_stimuli/t2/r_hat.wav","null","","",""
"survey-text","252","466813","0.0-252.0","6o2k6cn9law","2153.100000000093","","","{""Q0"":""pat""}","hat","pat"
"html-keyboard-response","253","469347","0.0-253.0","6o2k6cn9law","null","<div id=""countdown"">***</div>","null","","",""
"audio-keyboard-response","254","469687","0.0-254.0","6o2k6cn9law","null","perceptual_learning_stimuli/t2/r_trod.wav","null","","",""
"survey-text","255","473869","0.0-255.0","6o2k6cn9law","4178.5999999996275","","","{""Q0"":""thought""}","trod","thought"
"html-keyboard-response","256","476397","0.0-256.0","6o2k6cn9law","null","<div id=""countdown"">***</div>","null","","",""
"audio-keyboard-response","257","476728","0.0-257.0","6o2k6cn9law","null","perceptual_learning_stimuli/t2/r_noose.wav","null","","",""
"survey-text","258","480325","0.0-258.0","6o2k6cn9law","3594.2999999998137","","","{""Q0"":""muse""}","noose","muse"
"html-keyboard-response","259","482848","0.0-259.0","6o2k6cn9law","null","<div id=""countdown"">***</div>","null","","",""
"audio-keyboard-response","260","483169","0.0-260.0","6o2k6cn9law","null","perceptual_learning_stimuli/t2/r_loop.wav","null","","",""
"survey-text","261","483398","0.0-261.0","6o2k6cn9law","226.39999999990687","","","{""Q0"":""""}","loop",""
"html-keyboard-response","262","485916","0.0-262.0","6o2k6cn9law","null","<div id=""countdown"">***</div>","null","","",""
"audio-keyboard-response","263","486189","0.0-263.0","6o2k6cn9law","null","perceptual_learning_stimuli/t2/r_lip.wav","null","","",""
"survey-text","264","486726","0.0-264.0","6o2k6cn9law","533.8999999999069","","","{""Q0"":""""}","lip",""
"html-keyboard-response","265","489253","0.0-265.0","6o2k6cn9law","null","<div id=""countdown"">***</div>","null","","",""
"audio-keyboard-response","266","489569","0.0-266.0","6o2k6cn9law","null","perceptual_learning_stimuli/t2/r_sun.wav","null","","",""
"survey-text","267","490014","0.0-267.0","6o2k6cn9law","441.5","","","{""Q0"":""""}","sun",""
"html-keyboard-response","268","492534","0.0-268.0","6o2k6cn9law","null","<div id=""countdown"">***</div>","null","","",""
"audio-keyboard-response","269","492789","0.0-269.0","6o2k6cn9law","null","perceptual_learning_stimuli/t2/r_buck.wav","null","","",""
"survey-text","270","496534","0.0-270.0","6o2k6cn9law","3741.5","","","{""Q0"":""back""}","buck","back"
"html-keyboard-response","271","499069","0.0-271.0","6o2k6cn9law","null","<div id=""countdown"">***</div>","null","","",""
"audio-keyboard-response","272","499409","0.0-272.0","6o2k6cn9law","null","perceptual_learning_stimuli/t2/r_sash.wav","null","","",""
"survey-text","273","500230","0.0-273.0","6o2k6cn9law","816.8999999999069","","","{""Q0"":""""}","sash",""
"html-keyboard-response","274","502743","0.0-274.0","6o2k6cn9law","null","<div id=""countdown"">***</div>","null","","",""
"audio-keyboard-response","275","503090","0.0-275.0","6o2k6cn9law","null","perceptual_learning_stimuli/t2/r_suit.wav","null","","",""
"survey-text","276","503942","0.0-276.0","6o2k6cn9law","849","","","{""Q0"":""""}","suit",""
"html-keyboard-response","277","506459","0.0-277.0","6o2k6cn9law","null","<div id=""countdown"">***</div>","null","","",""
"audio-keyboard-response","278","506900","0.0-278.0","6o2k6cn9law","null","perceptual_learning_stimuli/t2/r_gleam.wav","null","","",""
"survey-text","279","507581","0.0-279.0","6o2k6cn9law","678.1999999997206","","","{""Q0"":""""}","gleam",""
"html-keyboard-response","280","510105","0.0-280.0","6o2k6cn9law","null","<div id=""countdown"">***</div>","null","","",""
"audio-keyboard-response","281","510470","0.0-281.0","6o2k6cn9law","null","perceptual_learning_stimuli/t2/r_fought.wav","null","","",""
"survey-text","282","512501","0.0-282.0","6o2k6cn9law","2028.2999999998137","","","{""Q0"":""sort""}","fought","sort"
"html-keyboard-response","283","515029","0.0-283.0","6o2k6cn9law","null","<div id=""countdown"">***</div>","null","","",""
"audio-keyboard-response","284","515280","0.0-284.0","6o2k6cn9law","null","perceptual_learning_stimuli/t2/r_dew.wav","null","","",""
"survey-text","285","516854","0.0-285.0","6o2k6cn9law","1570.1000000000931","","","{""Q0"":""do""}","dew","do"
"html-keyboard-response","286","519390","0.0-286.0","6o2k6cn9law","null","<div id=""countdown"">***</div>","null","","",""
"audio-keyboard-response","287","519860","0.0-287.0","6o2k6cn9law","null","perceptual_learning_stimuli/t2/r_grad.wav","null","","",""
"survey-text","288","525550","0.0-288.0","6o2k6cn9law","5686.100000000093","","","{""Q0"":""glad""}","grad","glad"
"html-keyboard-response","289","528070","0.0-289.0","6o2k6cn9law","null","<div id=""countdown"">***</div>","null","","",""
"audio-keyboard-response","290","528381","0.0-290.0","6o2k6cn9law","null","perceptual_learning_stimuli/t2/r_itch.wav","null","","",""
"survey-text","291","528710","0.0-291.0","6o2k6cn9law","325.40000000037253","","","{""Q0"":""""}","itch",""
"html-keyboard-response","292","531240","0.0-292.0","6o2k6cn9law","null","<div id=""countdown"">***</div>","null","","",""
"audio-keyboard-response","293","531651","0.0-293.0","6o2k6cn9law","null","perceptual_learning_stimuli/t2/r_boss.wav","null","","",""
"survey-text","294","533862","0.0-294.0","6o2k6cn9law","2207.3000000002794","","","{""Q0"":""bus""}","boss","bus"
"html-keyboard-response","295","536380","0.0-295.0","6o2k6cn9law","null","<div id=""countdown"">***</div>","null","","",""
"audio-keyboard-response","296","536611","0.0-296.0","6o2k6cn9law","null","perceptual_learning_stimuli/t2/r_cut.wav","null","","",""
"survey-text","297","537454","0.0-297.0","6o2k6cn9law","839.1000000000931","","","{""Q0"":""""}","cut",""
"html-keyboard-response","298","539963","0.0-298.0","6o2k6cn9law","null","<div id=""countdown"">***</div>","null","","",""
"audio-keyboard-response","299","540222","0.0-299.0","6o2k6cn9law","null","perceptual_learning_stimuli/t2/r_calf.wav","null","","",""
"survey-text","300","540822","0.0-300.0","6o2k6cn9law","596.7999999998137","","","{""Q0"":""""}","calf",""
"html-keyboard-response","301","543345","0.0-301.0","6o2k6cn9law","null","<div id=""countdown"">***</div>","null","","",""
"audio-keyboard-response","302","543662","0.0-302.0","6o2k6cn9law","null","perceptual_learning_stimuli/t2/r_lag.wav","null","","",""
"survey-text","303","544253","0.0-303.0","6o2k6cn9law","588.3999999999069","","","{""Q0"":""""}","lag",""
"html-keyboard-response","304","548862","0.0-304.0","6o2k6cn9law","3589.7999999998137","In the next block you will receive feedback after you have typed in the word that you heard. Please make sure to note if there is a difference between what you typed and what the word really is.","32","","",""
"html-keyboard-response","305","550881","0.0-305.0","6o2k6cn9law","null","<div id=""countdown"">***</div>","null","","",""
"audio-keyboard-response","306","551192","0.0-306.0","6o2k6cn9law","null","perceptual_learning_stimuli/f1/r_bit.wav","null","","",""
"survey-text","307","553734","0.0-307.0","6o2k6cn9law","2538","","","{""Q0"":""good""}","bit","good"
"html-keyboard-response","308","555605","0.0-308.0","6o2k6cn9law","863","bit","13","","",""
"audio-keyboard-response","309","557362","0.0-309.0","6o2k6cn9law","null","","null","","",""
"html-keyboard-response","310","559382","0.0-310.0","6o2k6cn9law","null","<div id=""countdown"">***</div>","null","","",""
"audio-keyboard-response","311","559703","0.0-311.0","6o2k6cn9law","null","perceptual_learning_stimuli/f1/r_clot.wav","null","","",""
"survey-text","312","562013","0.0-312.0","6o2k6cn9law","2307.5","","","{""Q0"":""dread""}","clot","dread"
"html-keyboard-response","313","564042","0.0-313.0","6o2k6cn9law","null","clot","null","","",""
"audio-keyboard-response","314","565802","0.0-314.0","6o2k6cn9law","null","","null","","",""
"html-keyboard-response","315","567833","0.0-315.0","6o2k6cn9law","null","<div id=""countdown"">***</div>","null","","",""
"audio-keyboard-response","316","568373","0.0-316.0","6o2k6cn9law","null","perceptual_learning_stimuli/f1/r_forth.wav","null","","",""
"survey-text","317","570798","0.0-317.0","6o2k6cn9law","2421.2000000001863","","","{""Q0"":""horse""}","forth","horse"
"html-keyboard-response","318","572469","0.0-318.0","6o2k6cn9law","665.8999999999069","forth","13","","",""
"audio-keyboard-response","319","574223","0.0-319.0","6o2k6cn9law","null","","null","","",""
"html-keyboard-response","320","576250","0.0-320.0","6o2k6cn9law","null","<div id=""countdown"">***</div>","null","","",""
"audio-keyboard-response","321","576533","0.0-321.0","6o2k6cn9law","null","perceptual_learning_stimuli/f1/r_nip.wav","null","","",""
"survey-text","322","578838","0.0-322.0","6o2k6cn9law","2301","","","{""Q0"":""lip""}","nip","lip"
"html-keyboard-response","323","580863","0.0-323.0","6o2k6cn9law","null","nip","null","","",""
"audio-keyboard-response","324","582633","0.0-324.0","6o2k6cn9law","469","","13","","",""
"html-keyboard-response","325","584658","0.0-325.0","6o2k6cn9law","null","<div id=""countdown"">***</div>","null","","",""
"audio-keyboard-response","326","584984","0.0-326.0","6o2k6cn9law","null","perceptual_learning_stimuli/f1/r_rick.wav","null","","",""
"survey-text","327","587725","0.0-327.0","6o2k6cn9law","2738.1999999997206","","","{""Q0"":""rake""}","rick","rake"
"html-keyboard-response","328","589429","0.0-328.0","6o2k6cn9law","684.8000000002794","rick","13","","",""
"audio-keyboard-response","329","591184","0.0-329.0","6o2k6cn9law","null","","null","","",""
"html-keyboard-response","330","593204","0.0-330.0","6o2k6cn9law","null","<div id=""countdown"">***</div>","null","","",""
"audio-keyboard-response","331","593277","0.0-331.0","6o2k6cn9law","69","perceptual_learning_stimuli/f1/r_cub.wav","13","","",""
"survey-text","332","595173","0.0-332.0","6o2k6cn9law","1893.9000000003725","","","{""Q0"":""""}","cub",""
"html-keyboard-response","333","596717","0.0-333.0","6o2k6cn9law","539.6000000000931","cub","13","","",""
"audio-keyboard-response","334","598484","0.0-334.0","6o2k6cn9law","null","","null","","",""
"html-keyboard-response","335","600514","0.0-335.0","6o2k6cn9law","null","<div id=""countdown"">***</div>","null","","",""
"audio-keyboard-response","336","600855","0.0-336.0","6o2k6cn9law","null","perceptual_learning_stimuli/f1/r_loss.wav","null","","",""
"survey-text","337","602598","0.0-337.0","6o2k6cn9law","1739.1999999997206","","","{""Q0"":""bus""}","loss","bus"
"html-keyboard-response","338","604173","0.0-338.0","6o2k6cn9law","568.5","loss","13","","",""
"audio-keyboard-response","339","605945","0.0-339.0","6o2k6cn9law","null","","null","","",""
"html-keyboard-response","340","607985","0.0-340.0","6o2k6cn9law","null","<div id=""countdown"">***</div>","null","","",""
"audio-keyboard-response","341","608345","0.0-341.0","6o2k6cn9law","null","perceptual_learning_stimuli/f1/r_lept.wav","null","","",""
"survey-text","342","610093","0.0-342.0","6o2k6cn9law","1744.7000000001863","","","{""Q0"":""lept""}","lept","lept"
"html-keyboard-response","343","612125","0.0-343.0","6o2k6cn9law","null","lept","null","","",""
"audio-keyboard-response","344","613880","0.0-344.0","6o2k6cn9law","null","","null","","",""
"html-keyboard-response","345","615895","0.0-345.0","6o2k6cn9law","null","<div id=""countdown"">***</div>","null","","",""
"audio-keyboard-response","346","616206","0.0-346.0","6o2k6cn9law","null","perceptual_learning_stimuli/f1/r_myth.wav","null","","",""
"survey-text","347","617534","0.0-347.0","6o2k6cn9law","1324.5","","","{""Q0"":""miss""}","myth","miss"
"html-keyboard-response","348","619205","0.0-348.0","6o2k6cn9law","654.3000000002794","myth","13","","",""
"audio-keyboard-response","349","620975","0.0-349.0","6o2k6cn9law","null","","null","","",""
"html-keyboard-response","350","622995","0.0-350.0","6o2k6cn9law","null","<div id=""countdown"">***</div>","null","","",""
"audio-keyboard-response","351","623276","0.0-351.0","6o2k6cn9law","null","perceptual_learning_stimuli/f1/r_cheat.wav","null","","",""
"survey-text","352","625166","0.0-352.0","6o2k6cn9law","1886","","","{""Q0"":""cheat""}","cheat","cheat"
"html-keyboard-response","353","627186","0.0-353.0","6o2k6cn9law","null","cheat","null","","",""
"audio-keyboard-response","354","628946","0.0-354.0","6o2k6cn9law","8","","13","","",""
"html-keyboard-response","355","630975","0.0-355.0","6o2k6cn9law","null","<div id=""countdown"">***</div>","null","","",""
"audio-keyboard-response","356","631357","0.0-356.0","6o2k6cn9law","null","perceptual_learning_stimuli/f1/r_chest.wav","null","","",""
"survey-text","357","632766","0.0-357.0","6o2k6cn9law","1405.5","","","{""Q0"":""test""}","chest","test"
"html-keyboard-response","358","634581","0.0-358.0","6o2k6cn9law","800.2000000001863","chest","13","","",""
"audio-keyboard-response","359","636336","0.0-359.0","6o2k6cn9law","null","","null","","",""
"html-keyboard-response","360","638356","0.0-360.0","6o2k6cn9law","null","<div id=""countdown"">***</div>","null","","",""
"audio-keyboard-response","361","638677","0.0-361.0","6o2k6cn9law","null","perceptual_learning_stimuli/f1/r_deal.wav","null","","",""
"survey-text","362","640294","0.0-362.0","6o2k6cn9law","1614.1000000000931","","","{""Q0"":""dear""}","deal","dear"
"html-keyboard-response","363","642306","0.0-363.0","6o2k6cn9law","null","deal","null","","",""
"audio-keyboard-response","364","644067","0.0-364.0","6o2k6cn9law","8","","13","","",""
"html-keyboard-response","365","646097","0.0-365.0","6o2k6cn9law","null","<div id=""countdown"">***</div>","null","","",""
"audio-keyboard-response","366","646598","0.0-366.0","6o2k6cn9law","null","perceptual_learning_stimuli/f1/r_blessed.wav","null","","",""
"survey-text","367","649430","0.0-367.0","6o2k6cn9law","2828.5","","","{""Q0"":""desk""}","blessed","desk"
"html-keyboard-response","368","651457","0.0-368.0","6o2k6cn9law","null","blessed","null","","",""
"audio-keyboard-response","369","653227","0.0-369.0","6o2k6cn9law","null","","null","","",""
"html-keyboard-response","370","655257","0.0-370.0","6o2k6cn9law","null","<div id=""countdown"">***</div>","null","","",""
"audio-keyboard-response","371","655588","0.0-371.0","6o2k6cn9law","null","perceptual_learning_stimuli/f1/r_reach.wav","null","","",""
"survey-text","372","655854","0.0-372.0","6o2k6cn9law","262.5","","","{""Q0"":""""}","reach",""
"html-keyboard-response","373","657888","0.0-373.0","6o2k6cn9law","null","reach","null","","",""
"audio-keyboard-response","374","659658","0.0-374.0","6o2k6cn9law","621","","13","","",""
"html-keyboard-response","375","661678","0.0-375.0","6o2k6cn9law","null","<div id=""countdown"">***</div>","null","","",""
"audio-keyboard-response","376","661978","0.0-376.0","6o2k6cn9law","null","perceptual_learning_stimuli/f1/r_mock.wav","null","","",""
"survey-text","377","664558","0.0-377.0","6o2k6cn9law","2575.7999999998137","","","{""Q0"":""work""}","mock","work"
"html-keyboard-response","378","666598","0.0-378.0","6o2k6cn9law","null","mock","null","","",""
"audio-keyboard-response","379","668358","0.0-379.0","6o2k6cn9law","null","","null","","",""
"html-keyboard-response","380","670388","0.0-380.0","6o2k6cn9law","null","<div id=""countdown"">***</div>","null","","",""
"audio-keyboard-response","381","670729","0.0-381.0","6o2k6cn9law","null","perceptual_learning_stimuli/f1/r_room.wav","null","","",""
"survey-text","382","673878","0.0-382.0","6o2k6cn9law","3145.5","","","{""Q0"":""homework""}","room","homework"
"html-keyboard-response","383","675733","0.0-383.0","6o2k6cn9law","834.1000000000931","room","13","","",""
"audio-keyboard-response","384","677499","0.0-384.0","6o2k6cn9law","null","","null","","",""
"html-keyboard-response","385","679528","0.0-385.0","6o2k6cn9law","null","<div id=""countdown"">***</div>","null","","",""
"audio-keyboard-response","386","679840","0.0-386.0","6o2k6cn9law","null","perceptual_learning_stimuli/f1/r_plod.wav","null","","",""
"survey-text","387","681262","0.0-387.0","6o2k6cn9law","1418.5","","","{""Q0"":""good""}","plod","good"
"html-keyboard-response","388","683165","0.0-388.0","6o2k6cn9law","885.7999999998137","plod","13","","",""
"audio-keyboard-response","389","684919","0.0-389.0","6o2k6cn9law","null","","null","","",""
"html-keyboard-response","390","686939","0.0-390.0","6o2k6cn9law","null","<div id=""countdown"">***</div>","null","","",""
"audio-keyboard-response","391","687270","0.0-391.0","6o2k6cn9law","null","perceptual_learning_stimuli/f1/r_calm.wav","null","","",""
"survey-text","392","688918","0.0-392.0","6o2k6cn9law","1644","","","{""Q0"":""tail""}","calm","tail"
"html-keyboard-response","393","690605","0.0-393.0","6o2k6cn9law","679.7000000001863","calm","13","","",""
"audio-keyboard-response","394","692369","0.0-394.0","6o2k6cn9law","null","","null","","",""
"html-keyboard-response","395","694390","0.0-395.0","6o2k6cn9law","null","<div id=""countdown"">***</div>","null","","",""
"audio-keyboard-response","396","694710","0.0-396.0","6o2k6cn9law","null","perceptual_learning_stimuli/f1/r_shed.wav","null","","",""
"survey-text","397","696390","0.0-397.0","6o2k6cn9law","1676.7000000001863","","","{""Q0"":""shed""}","shed","shed"
"html-keyboard-response","398","698420","0.0-398.0","6o2k6cn9law","null","shed","null","","",""
"audio-keyboard-response","399","700180","0.0-399.0","6o2k6cn9law","null","","null","","",""
"html-keyboard-response","400","702220","0.0-400.0","6o2k6cn9law","null","<div id=""countdown"">***</div>","null","","",""
"audio-keyboard-response","401","702551","0.0-401.0","6o2k6cn9law","null","perceptual_learning_stimuli/f1/r_dock.wav","null","","",""
"survey-text","402","704518","0.0-402.0","6o2k6cn9law","1963.6000000000931","","","{""Q0"":""deck""}","dock","deck"
"html-keyboard-response","403","706550","0.0-403.0","6o2k6cn9law","null","dock","null","","",""
"audio-keyboard-response","404","708307","0.0-404.0","6o2k6cn9law","null","","null","","",""
"html-keyboard-response","405","710330","0.0-405.0","6o2k6cn9law","null","<div id=""countdown"">***</div>","null","","",""
"audio-keyboard-response","406","710641","0.0-406.0","6o2k6cn9law","null","perceptual_learning_stimuli/f1/r_cure.wav","null","","",""
"survey-text","407","712334","0.0-407.0","6o2k6cn9law","1689.2999999998137","","","{""Q0"":""pure""}","cure","pure"
"html-keyboard-response","408","714351","0.0-408.0","6o2k6cn9law","null","cure","null","","",""
"audio-keyboard-response","409","716121","0.0-409.0","6o2k6cn9law","null","","null","","",""
"html-keyboard-response","410","718140","0.0-410.0","6o2k6cn9law","null","<div id=""countdown"">***</div>","null","","",""
"audio-keyboard-response","411","718632","0.0-411.0","6o2k6cn9law","null","perceptual_learning_stimuli/f1/r_grease.wav","null","","",""
"survey-text","412","721382","0.0-412.0","6o2k6cn9law","2746.399999999907","","","{""Q0"":""dirty""}","grease","dirty"
"html-keyboard-response","413","723411","0.0-413.0","6o2k6cn9law","null","grease","null","","",""
"audio-keyboard-response","414","725171","0.0-414.0","6o2k6cn9law","160","","13","","",""
"html-keyboard-response","415","727211","0.0-415.0","6o2k6cn9law","null","<div id=""countdown"">***</div>","null","","",""
"audio-keyboard-response","416","727512","0.0-416.0","6o2k6cn9law","null","perceptual_learning_stimuli/f1/r_bomb.wav","null","","",""
"survey-text","417","728462","0.0-417.0","6o2k6cn9law","946.2999999998137","","","{""Q0"":""""}","bomb",""
"html-keyboard-response","418","730496","0.0-418.0","6o2k6cn9law","null","bomb","null","","",""
"audio-keyboard-response","419","732251","0.0-419.0","6o2k6cn9law","null","","null","","",""
"html-keyboard-response","420","734271","0.0-420.0","6o2k6cn9law","null","<div id=""countdown"">***</div>","null","","",""
"audio-keyboard-response","421","734532","0.0-421.0","6o2k6cn9law","null","perceptual_learning_stimuli/f1/r_chill.wav","null","","",""
"survey-text","422","737117","0.0-422.0","6o2k6cn9law","2581.7999999998137","","","{""Q0"":""chip""}","chill","chip"
"html-keyboard-response","423","739141","0.0-423.0","6o2k6cn9law","null","chill","null","","",""
"audio-keyboard-response","424","740902","0.0-424.0","6o2k6cn9law","309","","13","","",""
"html-keyboard-response","425","742932","0.0-425.0","6o2k6cn9law","null","<div id=""countdown"">***</div>","null","","",""
"audio-keyboard-response","426","743173","0.0-426.0","6o2k6cn9law","null","perceptual_learning_stimuli/f1/r_took.wav","null","","",""
"survey-text","427","745110","0.0-427.0","6o2k6cn9law","1933.2999999998137","","","{""Q0"":""tick""}","took","tick"
"html-keyboard-response","428","747122","0.0-428.0","6o2k6cn9law","null","took","null","","",""
"audio-keyboard-response","429","748892","0.0-429.0","6o2k6cn9law","null","","null","","",""
"html-keyboard-response","430","750922","0.0-430.0","6o2k6cn9law","null","<div id=""countdown"">***</div>","null","","",""
"audio-keyboard-response","431","751273","0.0-431.0","6o2k6cn9law","null","perceptual_learning_stimuli/f1/r_hoop.wav","null","","",""
"survey-text","432","754125","0.0-432.0","6o2k6cn9law","2848.6999999997206","","","{""Q0"":""coop""}","hoop","coop"
"html-keyboard-response","433","756152","0.0-433.0","6o2k6cn9law","null","hoop","null","","",""
"audio-keyboard-response","434","757913","0.0-434.0","6o2k6cn9law","899","","13","","",""
"html-keyboard-response","435","759943","0.0-435.0","6o2k6cn9law","null","<div id=""countdown"">***</div>","null","","",""
"audio-keyboard-response","436","760474","0.0-436.0","6o2k6cn9law","null","perceptual_learning_stimuli/f1/r_street.wav","null","","",""
"survey-text","437","763150","0.0-437.0","6o2k6cn9law","2672.2999999998137","","","{""Q0"":""sturdy""}","street","sturdy"
"html-keyboard-response","438","765183","0.0-438.0","6o2k6cn9law","null","street","null","","",""
"audio-keyboard-response","439","766953","0.0-439.0","6o2k6cn9law","389","","13","","",""
"html-keyboard-response","440","768983","0.0-440.0","6o2k6cn9law","null","<div id=""countdown"">***</div>","null","","",""
"audio-keyboard-response","441","769324","0.0-441.0","6o2k6cn9law","null","perceptual_learning_stimuli/f1/r_fish.wav","null","","",""
"survey-text","442","770845","0.0-442.0","6o2k6cn9law","1517.5","","","{""Q0"":""fish""}","fish","fish"
"html-keyboard-response","443","772863","0.0-443.0","6o2k6cn9law","null","fish","null","","",""
"audio-keyboard-response","444","774633","0.0-444.0","6o2k6cn9law","null","","null","","",""
"html-keyboard-response","445","776664","0.0-445.0","6o2k6cn9law","null","<div id=""countdown"">***</div>","null","","",""
"audio-keyboard-response","446","776985","0.0-446.0","6o2k6cn9law","null","perceptual_learning_stimuli/f1/r_punch.wav","null","","",""
"survey-text","447","777526","0.0-447.0","6o2k6cn9law","537.3999999999069","","","{""Q0"":""""}","punch",""
"html-keyboard-response","448","779550","0.0-448.0","6o2k6cn9law","null","punch","null","","",""
"audio-keyboard-response","449","781314","0.0-449.0","6o2k6cn9law","null","","null","","",""
"html-keyboard-response","450","783354","0.0-450.0","6o2k6cn9law","null","<div id=""countdown"">***</div>","null","","",""
"audio-keyboard-response","451","783685","0.0-451.0","6o2k6cn9law","null","perceptual_learning_stimuli/f1/r_test.wav","null","","",""
"survey-text","452","787366","0.0-452.0","6o2k6cn9law","3676.899999999907","","","{""Q0"":""task""}","test","task"
"html-keyboard-response","453","789245","0.0-453.0","6o2k6cn9law","860","test","13","","",""
"audio-keyboard-response","454","791005","0.0-454.0","6o2k6cn9law","null","","null","","",""
"html-keyboard-response","455","793025","0.0-455.0","6o2k6cn9law","null","<div id=""countdown"">***</div>","null","","",""
"audio-keyboard-response","456","793326","0.0-456.0","6o2k6cn9law","null","perceptual_learning_stimuli/f1/r_pure.wav","null","","",""
"survey-text","457","795806","0.0-457.0","6o2k6cn9law","2476.7999999998137","","","{""Q0"":""pure""}","pure","pure"
"html-keyboard-response","458","797825","0.0-458.0","6o2k6cn9law","null","pure","null","","",""
"audio-keyboard-response","459","799595","0.0-459.0","6o2k6cn9law","null","","null","","",""
"html-keyboard-response","460","801635","0.0-460.0","6o2k6cn9law","null","<div id=""countdown"">***</div>","null","","",""
"audio-keyboard-response","461","802086","0.0-461.0","6o2k6cn9law","null","perceptual_learning_stimuli/f1/r_snoop.wav","null","","",""
"survey-text","462","804357","0.0-462.0","6o2k6cn9law","2267.9000000003725","","","{""Q0"":""sleep""}","snoop","sleep"
"html-keyboard-response","463","806381","0.0-463.0","6o2k6cn9law","null","snoop","null","","",""
"audio-keyboard-response","464","808135","0.0-464.0","6o2k6cn9law","null","","null","","",""
"html-keyboard-response","465","810156","0.0-465.0","6o2k6cn9law","null","<div id=""countdown"">***</div>","null","","",""
"audio-keyboard-response","466","810647","0.0-466.0","6o2k6cn9law","null","perceptual_learning_stimuli/f1/r_shrug.wav","null","","",""
"survey-text","467","812662","0.0-467.0","6o2k6cn9law","2011.3999999999069","","","{""Q0"":""shrug""}","shrug","shrug"
"html-keyboard-response","468","814069","0.0-468.0","6o2k6cn9law","401.6999999997206","shrug","13","","",""
"audio-keyboard-response","469","815826","0.0-469.0","6o2k6cn9law","null","","null","","",""
"html-keyboard-response","470","817846","0.0-470.0","6o2k6cn9law","null","<div id=""countdown"">***</div>","null","","",""
"audio-keyboard-response","471","818147","0.0-471.0","6o2k6cn9law","null","perceptual_learning_stimuli/f1/r_check.wav","null","","",""
"survey-text","472","818926","0.0-472.0","6o2k6cn9law","775","","","{""Q0"":""""}","check",""
"html-keyboard-response","473","820557","0.0-473.0","6o2k6cn9law","622.1000000000931","check","13","","",""
"audio-keyboard-response","474","822317","0.0-474.0","6o2k6cn9law","null","","null","","",""
"html-keyboard-response","475","824337","0.0-475.0","6o2k6cn9law","null","<div id=""countdown"">***</div>","null","","",""
"audio-keyboard-response","476","824597","0.0-476.0","6o2k6cn9law","null","perceptual_learning_stimuli/f1/r_tune.wav","null","","",""
"survey-text","477","825350","0.0-477.0","6o2k6cn9law","748.7999999998137","","","{""Q0"":""""}","tune",""
"html-keyboard-response","478","827378","0.0-478.0","6o2k6cn9law","null","tune","null","","",""
"audio-keyboard-response","479","829137","0.0-479.0","6o2k6cn9law","null","","null","","",""
"html-keyboard-response","480","831157","0.0-480.0","6o2k6cn9law","null","<div id=""countdown"">***</div>","null","","",""
"audio-keyboard-response","481","831458","0.0-481.0","6o2k6cn9law","null","perceptual_learning_stimuli/f1/r_claw.wav","null","","",""
"survey-text","482","832278","0.0-482.0","6o2k6cn9law","816.1999999997206","","","{""Q0"":""""}","claw",""
"html-keyboard-response","483","834309","0.0-483.0","6o2k6cn9law","null","claw","null","","",""
"audio-keyboard-response","484","836077","0.0-484.0","6o2k6cn9law","1240","","13","","",""
"html-keyboard-response","485","838097","0.0-485.0","6o2k6cn9law","null","<div id=""countdown"">***</div>","null","","",""
"audio-keyboard-response","486","838508","0.0-486.0","6o2k6cn9law","null","perceptual_learning_stimuli/f1/r_brew.wav","null","","",""
"survey-text","487","839141","0.0-487.0","6o2k6cn9law","629.7000000001863","","","{""Q0"":""""}","brew",""
"html-keyboard-response","488","841158","0.0-488.0","6o2k6cn9law","null","brew","null","","",""
"audio-keyboard-response","489","842927","0.0-489.0","6o2k6cn9law","null","","null","","",""
"html-keyboard-response","490","844948","0.0-490.0","6o2k6cn9law","null","<div id=""countdown"">***</div>","null","","",""
"audio-keyboard-response","491","845398","0.0-491.0","6o2k6cn9law","null","perceptual_learning_stimuli/f1/r_crest.wav","null","","",""
"survey-text","492","848253","0.0-492.0","6o2k6cn9law","2851.6999999997206","","","{""Q0"":""""}","crest",""
"html-keyboard-response","493","850278","0.0-493.0","6o2k6cn9law","null","crest","null","","",""
"audio-keyboard-response","494","852038","0.0-494.0","6o2k6cn9law","null","","null","","",""
"html-keyboard-response","495","854068","0.0-495.0","6o2k6cn9law","null","<div id=""countdown"">***</div>","null","","",""
"audio-keyboard-response","496","854319","0.0-496.0","6o2k6cn9law","null","perceptual_learning_stimuli/f1/r_who.wav","null","","",""
"survey-text","497","854997","0.0-497.0","6o2k6cn9law","675.1000000000931","","","{""Q0"":""""}","who",""
"html-keyboard-response","498","857018","0.0-498.0","6o2k6cn9law","null","who","null","","",""
"audio-keyboard-response","499","858778","0.0-499.0","6o2k6cn9law","null","","null","","",""
"html-keyboard-response","500","860808","0.0-500.0","6o2k6cn9law","null","<div id=""countdown"">***</div>","null","","",""
"audio-keyboard-response","501","861109","0.0-501.0","6o2k6cn9law","null","perceptual_learning_stimuli/f1/r_choose.wav","null","","",""
"survey-text","502","861798","0.0-502.0","6o2k6cn9law","685","","","{""Q0"":""""}","choose",""
"html-keyboard-response","503","863819","0.0-503.0","6o2k6cn9law","null","choose","null","","",""
"audio-keyboard-response","504","865579","0.0-504.0","6o2k6cn9law","null","","null","","",""
"html-keyboard-response","505","867609","0.0-505.0","6o2k6cn9law","null","<div id=""countdown"">***</div>","null","","",""
"audio-keyboard-response","506","867849","0.0-506.0","6o2k6cn9law","null","perceptual_learning_stimuli/f1/r_new.wav","null","","",""
"survey-text","507","892085","0.0-507.0","6o2k6cn9law","24232.100000000093","","","{""Q0"":""""}","new",""
"html-keyboard-response","508","893997","0.0-508.0","6o2k6cn9law","895.7999999998137","new","13","","",""
"audio-keyboard-response","509","895771","0.0-509.0","6o2k6cn9law","null","","null","","",""
"html-keyboard-response","510","897800","0.0-510.0","6o2k6cn9law","null","<div id=""countdown"">***</div>","null","","",""
"audio-keyboard-response","511","898291","0.0-511.0","6o2k6cn9law","null","perceptual_learning_stimuli/f1/r_speak.wav","null","","",""
"survey-text","512","902141","0.0-512.0","6o2k6cn9law","3846.399999999907","","","{""Q0"":""squeak""}","speak","squeak"
"html-keyboard-response","513","904170","0.0-513.0","6o2k6cn9law","null","speak","null","","",""
"audio-keyboard-response","514","905941","0.0-514.0","6o2k6cn9law","null","","null","","",""
"html-keyboard-response","515","907968","0.0-515.0","6o2k6cn9law","null","<div id=""countdown"">***</div>","null","","",""
"audio-keyboard-response","516","908421","0.0-516.0","6o2k6cn9law","null","perceptual_learning_stimuli/f1/r_spool.wav","null","","",""
"survey-text","517","909133","0.0-517.0","6o2k6cn9law","707.9000000003725","","","{""Q0"":""""}","spool",""
"html-keyboard-response","518","911161","0.0-518.0","6o2k6cn9law","null","spool","null","","",""
"audio-keyboard-response","519","912931","0.0-519.0","6o2k6cn9law","null","","null","","",""
"html-keyboard-response","520","914961","0.0-520.0","6o2k6cn9law","null","<div id=""countdown"">***</div>","null","","",""
"audio-keyboard-response","521","915231","0.0-521.0","6o2k6cn9law","null","perceptual_learning_stimuli/f1/r_tall.wav","null","","",""
"survey-text","522","915965","0.0-522.0","6o2k6cn9law","729.7999999998137","","","{""Q0"":""""}","tall",""
"html-keyboard-response","523","918001","0.0-523.0","6o2k6cn9law","null","tall","null","","",""
"audio-keyboard-response","524","919756","0.0-524.0","6o2k6cn9law","null","","null","","",""
"html-keyboard-response","525","921771","0.0-525.0","6o2k6cn9law","null","<div id=""countdown"">***</div>","null","","",""
"audio-keyboard-response","526","922202","0.0-526.0","6o2k6cn9law","null","perceptual_learning_stimuli/f1/r_launch.wav","null","","",""
"survey-text","527","922565","0.0-527.0","6o2k6cn9law","359.10000000009313","","","{""Q0"":""""}","launch",""
"html-keyboard-response","528","924602","0.0-528.0","6o2k6cn9law","null","launch","null","","",""
"audio-keyboard-response","529","926371","0.0-529.0","6o2k6cn9law","669","","13","","",""
"html-keyboard-response","530","928412","0.0-530.0","6o2k6cn9law","null","<div id=""countdown"">***</div>","null","","",""
"audio-keyboard-response","531","928642","0.0-531.0","6o2k6cn9law","null","perceptual_learning_stimuli/f1/r_top.wav","null","","",""
"survey-text","532","930245","0.0-532.0","6o2k6cn9law","1597","","","{""Q0"":""tap""}","top","tap"
"html-keyboard-response","533","931764","0.0-533.0","6o2k6cn9law","501.6999999997206","top","13","","",""
"audio-keyboard-response","534","933532","0.0-534.0","6o2k6cn9law","null","","null","","",""
"html-keyboard-response","535","935557","0.0-535.0","6o2k6cn9law","null","<div id=""countdown"">***</div>","null","","",""
"audio-keyboard-response","536","935943","0.0-536.0","6o2k6cn9law","null","perceptual_learning_stimuli/f1/r_troop.wav","null","","",""
"survey-text","537","936565","0.0-537.0","6o2k6cn9law","618.3999999999069","","","{""Q0"":""""}","troop",""
"html-keyboard-response","538","938592","0.0-538.0","6o2k6cn9law","null","troop","null","","",""
"audio-keyboard-response","539","940362","0.0-539.0","6o2k6cn9law","null","","null","","",""
"html-keyboard-response","540","942392","0.0-540.0","6o2k6cn9law","null","<div id=""countdown"">***</div>","null","","",""
"audio-keyboard-response","541","942793","0.0-541.0","6o2k6cn9law","null","perceptual_learning_stimuli/f1/r_hedge.wav","null","","",""
"survey-text","542","944125","0.0-542.0","6o2k6cn9law","1328.2000000001863","","","{""Q0"":""""}","hedge",""
"html-keyboard-response","543","946136","0.0-543.0","6o2k6cn9law","null","hedge","null","","",""
"audio-keyboard-response","544","947893","0.0-544.0","6o2k6cn9law","null","","null","","",""
"html-keyboard-response","545","949931","0.0-545.0","6o2k6cn9law","null","<div id=""countdown"">***</div>","null","","",""
"audio-keyboard-response","546","950313","0.0-546.0","6o2k6cn9law","null","perceptual_learning_stimuli/f1/r_least.wav","null","","",""
"survey-text","547","953485","0.0-547.0","6o2k6cn9law","3167.7000000001863","","","{""Q0"":""least""}","least","least"
"html-keyboard-response","548","955513","0.0-548.0","6o2k6cn9law","null","least","null","","",""
"audio-keyboard-response","549","957273","0.0-549.0","6o2k6cn9law","null","","null","","",""
"html-keyboard-response","550","959303","0.0-550.0","6o2k6cn9law","null","<div id=""countdown"">***</div>","null","","",""
"audio-keyboard-response","551","959654","0.0-551.0","6o2k6cn9law","null","perceptual_learning_stimuli/f1/r_bead.wav","null","","",""
"survey-text","552","961661","0.0-552.0","6o2k6cn9law","2002.9000000003725","","","{""Q0"":""did""}","bead","did"
"html-keyboard-response","553","963674","0.0-553.0","6o2k6cn9law","null","bead","null","","",""
"audio-keyboard-response","554","965444","0.0-554.0","6o2k6cn9law","null","","null","","",""
"html-keyboard-response","555","986054","0.0-555.0","6o2k6cn9law","20089.799999999814","The next block will be similar to the last block as again you will receive feedback after you have typed in the word that you have heard. Please make sure to note if there is a difference between what you typed and what the word really is.","32","","",""
"html-keyboard-response","556","988086","0.0-556.0","6o2k6cn9law","null","<div id=""countdown"">***</div>","null","","",""
"audio-keyboard-response","557","988456","0.0-557.0","6o2k6cn9law","null","perceptual_learning_stimuli/f2/r_rug.wav","null","","",""
"survey-text","558","990294","0.0-558.0","6o2k6cn9law","1833.2000000001863","","","{""Q0"":""egg""}","rug","egg"
"html-keyboard-response","559","991909","0.0-559.0","6o2k6cn9law","612.8999999999069","rug","13","","",""
"audio-keyboard-response","560","993673","0.0-560.0","6o2k6cn9law","null","","null","","",""
"html-keyboard-response","561","995716","0.0-561.0","6o2k6cn9law","null","<div id=""countdown"">***</div>","null","","",""
"audio-keyboard-response","562","996226","0.0-562.0","6o2k6cn9law","null","perceptual_learning_stimuli/f2/r_spice.wav","null","","",""
"survey-text","563","998429","0.0-563.0","6o2k6cn9law","2198.899999999907","","","{""Q0"":""spice""}","spice","spice"
"html-keyboard-response","564","1000446","0.0-564.0","6o2k6cn9law","null","spice","null","","",""
"audio-keyboard-response","565","1002217","0.0-565.0","6o2k6cn9law","null","","null","","",""
"html-keyboard-response","566","1004246","0.0-566.0","6o2k6cn9law","null","<div id=""countdown"">***</div>","null","","",""
"audio-keyboard-response","567","1004687","0.0-567.0","6o2k6cn9law","null","perceptual_learning_stimuli/f2/r_grit.wav","null","","",""
"survey-text","568","1007046","0.0-568.0","6o2k6cn9law","2354.5","","","{""Q0"":""""}","grit",""
"html-keyboard-response","569","1009056","0.0-569.0","6o2k6cn9law","null","grit","null","","",""
"audio-keyboard-response","570","1010817","0.0-570.0","6o2k6cn9law","null","","null","","",""
"html-keyboard-response","571","1012847","0.0-571.0","6o2k6cn9law","null","<div id=""countdown"">***</div>","null","","",""
"audio-keyboard-response","572","1013187","0.0-572.0","6o2k6cn9law","null","perceptual_learning_stimuli/f2/r_sup.wav","null","","",""
"survey-text","573","1013470","0.0-573.0","6o2k6cn9law","278.5","","","{""Q0"":""""}","sup",""
"html-keyboard-response","574","1015487","0.0-574.0","6o2k6cn9law","null","sup","null","","",""
"audio-keyboard-response","575","1017247","0.0-575.0","6o2k6cn9law","939","","13","","",""
"html-keyboard-response","576","1019277","0.0-576.0","6o2k6cn9law","null","<div id=""countdown"">***</div>","null","","",""
"audio-keyboard-response","577","1019768","0.0-577.0","6o2k6cn9law","null","perceptual_learning_stimuli/f2/r_next.wav","null","","",""
"survey-text","578","1020206","0.0-578.0","6o2k6cn9law","433.60000000009313","","","{""Q0"":""""}","next",""
"html-keyboard-response","579","1022226","0.0-579.0","6o2k6cn9law","null","next","null","","",""
"audio-keyboard-response","580","1023987","0.0-580.0","6o2k6cn9law","null","","null","","",""
"html-keyboard-response","581","1026018","0.0-581.0","6o2k6cn9law","null","<div id=""countdown"">***</div>","null","","",""
"audio-keyboard-response","582","1026348","0.0-582.0","6o2k6cn9law","null","perceptual_learning_stimuli/f2/r_pinch.wav","null","","",""
"survey-text","583","1026694","0.0-583.0","6o2k6cn9law","341.3000000002794","","","{""Q0"":""""}","pinch",""
"html-keyboard-response","584","1028718","0.0-584.0","6o2k6cn9law","null","pinch","null","","",""
"audio-keyboard-response","585","1030488","0.0-585.0","6o2k6cn9law","null","","null","","",""
"html-keyboard-response","586","1032518","0.0-586.0","6o2k6cn9law","null","<div id=""countdown"">***</div>","null","","",""
"audio-keyboard-response","587","1032908","0.0-587.0","6o2k6cn9law","null","perceptual_learning_stimuli/f2/r_charge.wav","null","","",""
"survey-text","588","1033453","0.0-588.0","6o2k6cn9law","541","","","{""Q0"":""""}","charge",""
"html-keyboard-response","589","1035478","0.0-589.0","6o2k6cn9law","null","charge","null","","",""
"audio-keyboard-response","590","1037233","0.0-590.0","6o2k6cn9law","1269","","13","","",""
"html-keyboard-response","591","1039269","0.0-591.0","6o2k6cn9law","null","<div id=""countdown"">***</div>","null","","",""
"audio-keyboard-response","592","1039649","0.0-592.0","6o2k6cn9law","null","perceptual_learning_stimuli/f2/r_notch.wav","null","","",""
"survey-text","593","1040814","0.0-593.0","6o2k6cn9law","1160.5","","","{""Q0"":""""}","notch",""
"html-keyboard-response","594","1042840","0.0-594.0","6o2k6cn9law","null","notch","null","","",""
"audio-keyboard-response","595","1044599","0.0-595.0","6o2k6cn9law","null","","null","","",""
"html-keyboard-response","596","1046626","0.0-596.0","6o2k6cn9law","null","<div id=""countdown"">***</div>","null","","",""
"audio-keyboard-response","597","1046889","0.0-597.0","6o2k6cn9law","null","perceptual_learning_stimuli/f2/r_raw.wav","null","","",""
"survey-text","598","1047590","0.0-598.0","6o2k6cn9law","696.5","","","{""Q0"":""""}","raw",""
"html-keyboard-response","599","1049624","0.0-599.0","6o2k6cn9law","null","raw","null","","",""
"audio-keyboard-response","600","1051379","0.0-600.0","6o2k6cn9law","1312","","13","","",""
"html-keyboard-response","601","1053404","0.0-601.0","6o2k6cn9law","null","<div id=""countdown"">***</div>","null","","",""
"audio-keyboard-response","602","1053830","0.0-602.0","6o2k6cn9law","null","perceptual_learning_stimuli/f2/r_budge.wav","null","","",""
"survey-text","603","1054694","0.0-603.0","6o2k6cn9law","859.5","","","{""Q0"":""""}","budge",""
"html-keyboard-response","604","1056716","0.0-604.0","6o2k6cn9law","null","budge","null","","",""
"audio-keyboard-response","605","1058479","0.0-605.0","6o2k6cn9law","29","","13","","",""
"html-keyboard-response","606","1060509","0.0-606.0","6o2k6cn9law","null","<div id=""countdown"">***</div>","null","","",""
"audio-keyboard-response","607","1060970","0.0-607.0","6o2k6cn9law","null","perceptual_learning_stimuli/f2/r_scare.wav","null","","",""
"survey-text","608","1063206","0.0-608.0","6o2k6cn9law","2231.5","","","{""Q0"":""scatter""}","scare","scatter"
"html-keyboard-response","609","1065240","0.0-609.0","6o2k6cn9law","null","scare","null","","",""
"audio-keyboard-response","610","1067000","0.0-610.0","6o2k6cn9law","null","","null","","",""
"html-keyboard-response","611","1069020","0.0-611.0","6o2k6cn9law","null","<div id=""countdown"">***</div>","null","","",""
"audio-keyboard-response","612","1069340","0.0-612.0","6o2k6cn9law","null","perceptual_learning_stimuli/f2/r_deep.wav","null","","",""
"survey-text","613","1072285","0.0-613.0","6o2k6cn9law","2941.100000000093","","","{""Q0"":""deep""}","deep","deep"
"html-keyboard-response","614","1074320","0.0-614.0","6o2k6cn9law","null","deep","null","","",""
"audio-keyboard-response","615","1076090","0.0-615.0","6o2k6cn9law","null","","null","","",""
"html-keyboard-response","616","1078120","0.0-616.0","6o2k6cn9law","null","<div id=""countdown"">***</div>","null","","",""
"audio-keyboard-response","617","1078511","0.0-617.0","6o2k6cn9law","null","perceptual_learning_stimuli/f2/r_bolt.wav","null","","",""
"survey-text","618","1080413","0.0-618.0","6o2k6cn9law","1898.6000000000931","","","{""Q0"":""bird""}","bolt","bird"
"html-keyboard-response","619","1082441","0.0-619.0","6o2k6cn9law","null","bolt","null","","",""
"audio-keyboard-response","620","1084201","0.0-620.0","6o2k6cn9law","null","","null","","",""
"html-keyboard-response","621","1086231","0.0-621.0","6o2k6cn9law","null","<div id=""countdown"">***</div>","null","","",""
"audio-keyboard-response","622","1086532","0.0-622.0","6o2k6cn9law","null","perceptual_learning_stimuli/f2/r_toss.wav","null","","",""
"survey-text","623","1088517","0.0-623.0","6o2k6cn9law","1981.7000000001863","","","{""Q0"":""test""}","toss","test"
"html-keyboard-response","624","1090531","0.0-624.0","6o2k6cn9law","null","toss","null","","",""
"audio-keyboard-response","625","1092291","0.0-625.0","6o2k6cn9law","null","","null","","",""
"html-keyboard-response","626","1094312","0.0-626.0","6o2k6cn9law","null","<div id=""countdown"">***</div>","null","","",""
"audio-keyboard-response","627","1094642","0.0-627.0","6o2k6cn9law","null","perceptual_learning_stimuli/f2/r_pest.wav","null","","",""
"survey-text","628","1096333","0.0-628.0","6o2k6cn9law","1687.3999999999069","","","{""Q0"":""test""}","pest","test"
"html-keyboard-response","629","1098362","0.0-629.0","6o2k6cn9law","null","pest","null","","",""
"audio-keyboard-response","630","1100121","0.0-630.0","6o2k6cn9law","null","","null","","",""
"html-keyboard-response","631","1102152","0.0-631.0","6o2k6cn9law","null","<div id=""countdown"">***</div>","null","","",""
"audio-keyboard-response","632","1102412","0.0-632.0","6o2k6cn9law","null","perceptual_learning_stimuli/f2/r_tick.wav","null","","",""
"survey-text","633","1103502","0.0-633.0","6o2k6cn9law","1085.2999999998137","","","{""Q0"":""""}","tick",""
"html-keyboard-response","634","1105517","0.0-634.0","6o2k6cn9law","null","tick","null","","",""
"audio-keyboard-response","635","1107272","0.0-635.0","6o2k6cn9law","null","","null","","",""
"html-keyboard-response","636","1109302","0.0-636.0","6o2k6cn9law","null","<div id=""countdown"">***</div>","null","","",""
"audio-keyboard-response","637","1109763","0.0-637.0","6o2k6cn9law","null","perceptual_learning_stimuli/f2/r_skid.wav","null","","",""
"survey-text","638","1110181","0.0-638.0","6o2k6cn9law","414.70000000018626","","","{""Q0"":""""}","skid",""
"html-keyboard-response","639","1112210","0.0-639.0","6o2k6cn9law","null","skid","null","","",""
"audio-keyboard-response","640","1113982","0.0-640.0","6o2k6cn9law","null","","null","","",""
"html-keyboard-response","641","1116012","0.0-641.0","6o2k6cn9law","null","<div id=""countdown"">***</div>","null","","",""
"audio-keyboard-response","642","1116453","0.0-642.0","6o2k6cn9law","null","perceptual_learning_stimuli/f2/r_skit.wav","null","","",""
"survey-text","643","1118549","0.0-643.0","6o2k6cn9law","2092.7000000001863","","","{""Q0"":""spit""}","skit","spit"
"html-keyboard-response","644","1120582","0.0-644.0","6o2k6cn9law","null","skit","null","","",""
"audio-keyboard-response","645","1122352","0.0-645.0","6o2k6cn9law","null","","null","","",""
"html-keyboard-response","646","1124383","0.0-646.0","6o2k6cn9law","null","<div id=""countdown"">***</div>","null","","",""
"audio-keyboard-response","647","1124704","0.0-647.0","6o2k6cn9law","null","perceptual_learning_stimuli/f2/r_fed.wav","null","","",""
"survey-text","648","1127061","0.0-648.0","6o2k6cn9law","2354.1999999997206","","","{""Q0"":""stub""}","fed","stub"
"html-keyboard-response","649","1129073","0.0-649.0","6o2k6cn9law","null","fed","null","","",""
"audio-keyboard-response","650","1130833","0.0-650.0","6o2k6cn9law","null","","null","","",""
"html-keyboard-response","651","1132863","0.0-651.0","6o2k6cn9law","null","<div id=""countdown"">***</div>","null","","",""
"audio-keyboard-response","652","1133114","0.0-652.0","6o2k6cn9law","null","perceptual_learning_stimuli/f2/r_cook.wav","null","","",""
"survey-text","653","1133406","0.0-653.0","6o2k6cn9law","288","","","{""Q0"":""""}","cook",""
"html-keyboard-response","654","1135418","0.0-654.0","6o2k6cn9law","null","cook","null","","",""
"audio-keyboard-response","655","1137184","0.0-655.0","6o2k6cn9law","null","","null","","",""
"html-keyboard-response","656","1139213","0.0-656.0","6o2k6cn9law","null","<div id=""countdown"">***</div>","null","","",""
"audio-keyboard-response","657","1139675","0.0-657.0","6o2k6cn9law","null","perceptual_learning_stimuli/f2/r_slog.wav","null","","",""
"survey-text","658","1141213","0.0-658.0","6o2k6cn9law","1535.6000000000931","","","{""Q0"":""""}","slog",""
"html-keyboard-response","659","1143224","0.0-659.0","6o2k6cn9law","null","slog","null","","",""
"audio-keyboard-response","660","1144994","0.0-660.0","6o2k6cn9law","null","","null","","",""
"html-keyboard-response","661","1147024","0.0-661.0","6o2k6cn9law","null","<div id=""countdown"">***</div>","null","","",""
"audio-keyboard-response","662","1147485","0.0-662.0","6o2k6cn9law","null","perceptual_learning_stimuli/f2/r_beast.wav","null","","",""
"survey-text","663","1151877","0.0-663.0","6o2k6cn9law","4389.399999999907","","","{""Q0"":""beast""}","beast","beast"
"html-keyboard-response","664","1153904","0.0-664.0","6o2k6cn9law","null","beast","null","","",""
"audio-keyboard-response","665","1155675","0.0-665.0","6o2k6cn9law","null","","null","","",""
"html-keyboard-response","666","1157704","0.0-666.0","6o2k6cn9law","null","<div id=""countdown"">***</div>","null","","",""
"audio-keyboard-response","667","1157975","0.0-667.0","6o2k6cn9law","null","perceptual_learning_stimuli/f2/r_mess.wav","null","","",""
"survey-text","668","1158693","0.0-668.0","6o2k6cn9law","714.3999999999069","","","{""Q0"":""""}","mess",""
"html-keyboard-response","669","1160729","0.0-669.0","6o2k6cn9law","null","mess","null","","",""
"audio-keyboard-response","670","1162494","0.0-670.0","6o2k6cn9law","149","","13","","",""
"html-keyboard-response","671","1164515","0.0-671.0","6o2k6cn9law","null","<div id=""countdown"">***</div>","null","","",""
"audio-keyboard-response","672","1165076","0.0-672.0","6o2k6cn9law","null","perceptual_learning_stimuli/f2/r_scotch.wav","null","","",""
"survey-text","673","1171509","0.0-673.0","6o2k6cn9law","6429.799999999814","","","{""Q0"":""swept""}","scotch","swept"
"html-keyboard-response","674","1173197","0.0-674.0","6o2k6cn9law","670.7999999998137","scotch","13","","",""
"audio-keyboard-response","675","1174956","0.0-675.0","6o2k6cn9law","null","","null","","",""
"html-keyboard-response","676","1176986","0.0-676.0","6o2k6cn9law","null","<div id=""countdown"">***</div>","null","","",""
"audio-keyboard-response","677","1177467","0.0-677.0","6o2k6cn9law","null","perceptual_learning_stimuli/f2/r_crutch.wav","null","","",""
"survey-text","678","1179198","0.0-678.0","6o2k6cn9law","1727.3999999999069","","","{""Q0"":""""}","crutch",""
"html-keyboard-response","679","1181206","0.0-679.0","6o2k6cn9law","null","crutch","null","","",""
"audio-keyboard-response","680","1182976","0.0-680.0","6o2k6cn9law","null","","null","","",""
"html-keyboard-response","681","1184996","0.0-681.0","6o2k6cn9law","null","<div id=""countdown"">***</div>","null","","",""
"audio-keyboard-response","682","1185277","0.0-682.0","6o2k6cn9law","null","perceptual_learning_stimuli/f2/r_hit.wav","null","","",""
"survey-text","683","1187117","0.0-683.0","6o2k6cn9law","1837.2000000001863","","","{""Q0"":""hit""}","hit","hit"
"html-keyboard-response","684","1189136","0.0-684.0","6o2k6cn9law","null","hit","null","","",""
"audio-keyboard-response","685","1190897","0.0-685.0","6o2k6cn9law","null","","null","","",""
"html-keyboard-response","686","1192926","0.0-686.0","6o2k6cn9law","null","<div id=""countdown"">***</div>","null","","",""
"audio-keyboard-response","687","1193347","0.0-687.0","6o2k6cn9law","null","perceptual_learning_stimuli/f2/r_flood.wav","null","","",""
"survey-text","688","1195269","0.0-688.0","6o2k6cn9law","1918.5","","","{""Q0"":""flood""}","flood","flood"
"html-keyboard-response","689","1197277","0.0-689.0","6o2k6cn9law","null","flood","null","","",""
"audio-keyboard-response","690","1199047","0.0-690.0","6o2k6cn9law","null","","null","","",""
"html-keyboard-response","691","1201077","0.0-691.0","6o2k6cn9law","null","<div id=""countdown"">***</div>","null","","",""
"audio-keyboard-response","692","1201388","0.0-692.0","6o2k6cn9law","null","perceptual_learning_stimuli/f2/r_lead.wav","null","","",""
"survey-text","693","1203093","0.0-693.0","6o2k6cn9law","1702","","","{""Q0"":""lead""}","lead","lead"
"html-keyboard-response","694","1205117","0.0-694.0","6o2k6cn9law","null","lead","null","","",""
"audio-keyboard-response","695","1206877","0.0-695.0","6o2k6cn9law","null","","null","","",""
"html-keyboard-response","696","1208917","0.0-696.0","6o2k6cn9law","null","<div id=""countdown"">***</div>","null","","",""
"audio-keyboard-response","697","1209158","0.0-697.0","6o2k6cn9law","null","perceptual_learning_stimuli/f2/r_teen.wav","null","","",""
"survey-text","698","1213661","0.0-698.0","6o2k6cn9law","4499.700000000186","","","{""Q0"":""did""}","teen","did"
"html-keyboard-response","699","1215688","0.0-699.0","6o2k6cn9law","null","teen","null","","",""
"audio-keyboard-response","700","1217458","0.0-700.0","6o2k6cn9law","null","","null","","",""
"html-keyboard-response","701","1219488","0.0-701.0","6o2k6cn9law","null","<div id=""countdown"">***</div>","null","","",""
"audio-keyboard-response","702","1219919","0.0-702.0","6o2k6cn9law","null","perceptual_learning_stimuli/f2/r_free1.wav","null","","",""
"survey-text","703","1220629","0.0-703.0","6o2k6cn9law","707","","","{""Q0"":""""}","free1",""
"html-keyboard-response","704","1222653","0.0-704.0","6o2k6cn9law","null","free1","null","","",""
"audio-keyboard-response","705","1224408","0.0-705.0","6o2k6cn9law","null","","null","","",""
"html-keyboard-response","706","1226448","0.0-706.0","6o2k6cn9law","null","<div id=""countdown"">***</div>","null","","",""
"audio-keyboard-response","707","1226799","0.0-707.0","6o2k6cn9law","null","perceptual_learning_stimuli/f2/r_perk.wav","null","","",""
"survey-text","708","1227525","0.0-708.0","6o2k6cn9law","722.7999999998137","","","{""Q0"":""""}","perk",""
"html-keyboard-response","709","1229553","0.0-709.0","6o2k6cn9law","null","perk","null","","",""
"audio-keyboard-response","710","1231319","0.0-710.0","6o2k6cn9law","null","","null","","",""
"html-keyboard-response","711","1233359","0.0-711.0","6o2k6cn9law","null","<div id=""countdown"">***</div>","null","","",""
"audio-keyboard-response","712","1233720","0.0-712.0","6o2k6cn9law","null","perceptual_learning_stimuli/f2/r_reek.wav","null","","",""
"survey-text","713","1236141","0.0-713.0","6o2k6cn9law","2418","","","{""Q0"":""cork""}","reek","cork"
"html-keyboard-response","714","1238169","0.0-714.0","6o2k6cn9law","null","reek","null","","",""
"audio-keyboard-response","715","1239939","0.0-715.0","6o2k6cn9law","null","","null","","",""
"html-keyboard-response","716","1241969","0.0-716.0","6o2k6cn9law","null","<div id=""countdown"">***</div>","null","","",""
"audio-keyboard-response","717","1242250","0.0-717.0","6o2k6cn9law","null","perceptual_learning_stimuli/f2/r_ray.wav","null","","",""
"survey-text","718","1243109","0.0-718.0","6o2k6cn9law","856.1000000000931","","","{""Q0"":""""}","ray",""
"html-keyboard-response","719","1245133","0.0-719.0","6o2k6cn9law","null","ray","null","","",""
"audio-keyboard-response","720","1246900","0.0-720.0","6o2k6cn9law","null","","null","","",""
"html-keyboard-response","721","1248920","0.0-721.0","6o2k6cn9law","null","<div id=""countdown"">***</div>","null","","",""
"audio-keyboard-response","722","1249221","0.0-722.0","6o2k6cn9law","null","perceptual_learning_stimuli/f2/r_heat.wav","null","","",""
"survey-text","723","1249997","0.0-723.0","6o2k6cn9law","773.5","","","{""Q0"":""""}","heat",""
"html-keyboard-response","724","1252019","0.0-724.0","6o2k6cn9law","null","heat","null","","",""
"audio-keyboard-response","725","1253790","0.0-725.0","6o2k6cn9law","null","","null","","",""
"html-keyboard-response","726","1255811","0.0-726.0","6o2k6cn9law","null","<div id=""countdown"">***</div>","null","","",""
"audio-keyboard-response","727","1256090","0.0-727.0","6o2k6cn9law","null","perceptual_learning_stimuli/f2/r_lid.wav","null","","",""
"survey-text","728","1260389","0.0-728.0","6o2k6cn9law","4295.399999999907","","","{""Q0"":""lead""}","lid","lead"
"html-keyboard-response","729","1262420","0.0-729.0","6o2k6cn9law","null","lid","null","","",""
"audio-keyboard-response","730","1264190","0.0-730.0","6o2k6cn9law","null","","null","","",""
"html-keyboard-response","731","1266220","0.0-731.0","6o2k6cn9law","null","<div id=""countdown"">***</div>","null","","",""
"audio-keyboard-response","732","1266621","0.0-732.0","6o2k6cn9law","null","perceptual_learning_stimuli/f2/r_goof.wav","null","","",""
"survey-text","733","1267069","0.0-733.0","6o2k6cn9law","444.5","","","{""Q0"":""""}","goof",""
"html-keyboard-response","734","1269087","0.0-734.0","6o2k6cn9law","null","goof","null","","",""
"audio-keyboard-response","735","1270840","0.0-735.0","6o2k6cn9law","null","","null","","",""
"html-keyboard-response","736","1272856","0.0-736.0","6o2k6cn9law","null","<div id=""countdown"">***</div>","null","","",""
"audio-keyboard-response","737","1273082","0.0-737.0","6o2k6cn9law","null","perceptual_learning_stimuli/f2/r_kit.wav","null","","",""
"survey-text","738","1273821","0.0-738.0","6o2k6cn9law","736.5","","","{""Q0"":""""}","kit",""
"html-keyboard-response","739","1275838","0.0-739.0","6o2k6cn9law","null","kit","null","","",""
"audio-keyboard-response","740","1277611","0.0-740.0","6o2k6cn9law","null","","null","","",""
"html-keyboard-response","741","1279631","0.0-741.0","6o2k6cn9law","null","<div id=""countdown"">***</div>","null","","",""
"audio-keyboard-response","742","1279942","0.0-742.0","6o2k6cn9law","null","perceptual_learning_stimuli/f2/r_get.wav","null","","",""
"survey-text","743","1281973","0.0-743.0","6o2k6cn9law","2027.7000000001863","","","{""Q0"":""good""}","get","good"
"html-keyboard-response","744","1283981","0.0-744.0","6o2k6cn9law","null","get","null","","",""
"audio-keyboard-response","745","1285737","0.0-745.0","6o2k6cn9law","null","","null","","",""
"html-keyboard-response","746","1287772","0.0-746.0","6o2k6cn9law","null","<div id=""countdown"">***</div>","null","","",""
"audio-keyboard-response","747","1288143","0.0-747.0","6o2k6cn9law","null","perceptual_learning_stimuli/f2/r_nest.wav","null","","",""
"survey-text","748","1290293","0.0-748.0","6o2k6cn9law","2147.399999999907","","","{""Q0"":""rest""}","nest","rest"
"html-keyboard-response","749","1292302","0.0-749.0","6o2k6cn9law","null","nest","null","","",""
"audio-keyboard-response","750","1294062","0.0-750.0","6o2k6cn9law","null","","null","","",""
"html-keyboard-response","751","1296072","0.0-751.0","6o2k6cn9law","null","<div id=""countdown"">***</div>","null","","",""
"audio-keyboard-response","752","1296363","0.0-752.0","6o2k6cn9law","null","perceptual_learning_stimuli/f2/r_wean.wav","null","","",""
"survey-text","753","1298509","0.0-753.0","6o2k6cn9law","2142.5","","","{""Q0"":""minute""}","wean","minute"
"html-keyboard-response","754","1300522","0.0-754.0","6o2k6cn9law","null","wean","null","","",""
"audio-keyboard-response","755","1302282","0.0-755.0","6o2k6cn9law","null","","null","","",""
"html-keyboard-response","756","1304302","0.0-756.0","6o2k6cn9law","null","<div id=""countdown"">***</div>","null","","",""
"audio-keyboard-response","757","1304783","0.0-757.0","6o2k6cn9law","null","perceptual_learning_stimuli/f2/r_paid.wav","null","","",""
"survey-text","758","1304989","0.0-758.0","6o2k6cn9law","202.8000000002794","","","{""Q0"":""""}","paid",""
"html-keyboard-response","759","1307003","0.0-759.0","6o2k6cn9law","null","paid","null","","",""
"audio-keyboard-response","760","1308763","0.0-760.0","6o2k6cn9law","null","","null","","",""
"html-keyboard-response","761","1310793","0.0-761.0","6o2k6cn9law","null","<div id=""countdown"">***</div>","null","","",""
"audio-keyboard-response","762","1311403","0.0-762.0","6o2k6cn9law","null","perceptual_learning_stimuli/f2/r_probe.wav","null","","",""
"survey-text","763","1311773","0.0-763.0","6o2k6cn9law","367.20000000018626","","","{""Q0"":""""}","probe",""
"html-keyboard-response","764","1313549","0.0-764.0","6o2k6cn9law","755.2000000001863","probe","13","","",""
"audio-keyboard-response","765","1315303","0.0-765.0","6o2k6cn9law","null","","null","","",""
"html-keyboard-response","766","1317328","0.0-766.0","6o2k6cn9law","null","<div id=""countdown"">***</div>","null","","",""
"audio-keyboard-response","767","1317594","0.0-767.0","6o2k6cn9law","null","perceptual_learning_stimuli/f2/r_end.wav","null","","",""
"survey-text","768","1319213","0.0-768.0","6o2k6cn9law","1617","","","{""Q0"":""bed""}","end","bed"
"html-keyboard-response","769","1321243","0.0-769.0","6o2k6cn9law","null","end","null","","",""
"audio-keyboard-response","770","1323013","0.0-770.0","6o2k6cn9law","null","","null","","",""
"html-keyboard-response","771","1325029","0.0-771.0","6o2k6cn9law","null","<div id=""countdown"">***</div>","null","","",""
"audio-keyboard-response","772","1325223","0.0-772.0","6o2k6cn9law","null","perceptual_learning_stimuli/f2/r_odd.wav","null","","",""
"survey-text","773","1325771","0.0-773.0","6o2k6cn9law","545","","","{""Q0"":""""}","odd",""
"html-keyboard-response","774","1327792","0.0-774.0","6o2k6cn9law","null","odd","null","","",""
"audio-keyboard-response","775","1329558","0.0-775.0","6o2k6cn9law","null","","null","","",""
"html-keyboard-response","776","1331592","0.0-776.0","6o2k6cn9law","null","<div id=""countdown"">***</div>","null","","",""
"audio-keyboard-response","777","1332053","0.0-777.0","6o2k6cn9law","null","perceptual_learning_stimuli/f2/r_boost.wav","null","","",""
"survey-text","778","1333827","0.0-778.0","6o2k6cn9law","1770.8000000002794","","","{""Q0"":""boost""}","boost","boost"
"html-keyboard-response","779","1335842","0.0-779.0","6o2k6cn9law","null","boost","null","","",""
"audio-keyboard-response","780","1337598","0.0-780.0","6o2k6cn9law","null","","null","","",""
"html-keyboard-response","781","1339632","0.0-781.0","6o2k6cn9law","null","<div id=""countdown"">***</div>","null","","",""
"audio-keyboard-response","782","1340034","0.0-782.0","6o2k6cn9law","null","perceptual_learning_stimuli/f2/r_wrist.wav","null","","",""
"survey-text","783","1341667","0.0-783.0","6o2k6cn9law","1630.1000000000931","","","{""Q0"":""aced""}","wrist","aced"
"html-keyboard-response","784","1343688","0.0-784.0","6o2k6cn9law","null","wrist","null","","",""
"audio-keyboard-response","785","1345448","0.0-785.0","6o2k6cn9law","null","","null","","",""
"html-keyboard-response","786","1347468","0.0-786.0","6o2k6cn9law","null","<div id=""countdown"">***</div>","null","","",""
"audio-keyboard-response","787","1347814","0.0-787.0","6o2k6cn9law","null","perceptual_learning_stimuli/f2/r_cease.wav","null","","",""
"survey-text","788","1349835","0.0-788.0","6o2k6cn9law","2019.2000000001863","","","{""Q0"":""cease""}","cease","cease"
"html-keyboard-response","789","1351863","0.0-789.0","6o2k6cn9law","null","cease","null","","",""
"audio-keyboard-response","790","1353633","0.0-790.0","6o2k6cn9law","null","","null","","",""
"html-keyboard-response","791","1355664","0.0-791.0","6o2k6cn9law","null","<div id=""countdown"">***</div>","null","","",""
"audio-keyboard-response","792","1355955","0.0-792.0","6o2k6cn9law","null","perceptual_learning_stimuli/f2/r_inch.wav","null","","",""
"survey-text","793","1357699","0.0-793.0","6o2k6cn9law","1741.2000000001863","","","{""Q0"":""inch""}","inch","inch"
"html-keyboard-response","794","1359724","0.0-794.0","6o2k6cn9law","null","inch","null","","",""
"audio-keyboard-response","795","1361483","0.0-795.0","6o2k6cn9law","null","","null","","",""
"html-keyboard-response","796","1363499","0.0-796.0","6o2k6cn9law","null","<div id=""countdown"">***</div>","null","","",""
"audio-keyboard-response","797","1363865","0.0-797.0","6o2k6cn9law","null","perceptual_learning_stimuli/f2/r_fate.wav","null","","",""
"survey-text","798","1365387","0.0-798.0","6o2k6cn9law","1519.8999999999069","","","{""Q0"":""fight""}","fate","fight"
"html-keyboard-response","799","1367404","0.0-799.0","6o2k6cn9law","null","fate","null","","",""
"audio-keyboard-response","800","1369159","0.0-800.0","6o2k6cn9law","null","","null","","",""
"html-keyboard-response","801","1371174","0.0-801.0","6o2k6cn9law","null","<div id=""countdown"">***</div>","null","","",""
"audio-keyboard-response","802","1371455","0.0-802.0","6o2k6cn9law","null","perceptual_learning_stimuli/f2/r_mean.wav","null","","",""
"survey-text","803","1372099","0.0-803.0","6o2k6cn9law","641.9000000003725","","","{""Q0"":""""}","mean",""
"html-keyboard-response","804","1374125","0.0-804.0","6o2k6cn9law","null","mean","null","","",""
"audio-keyboard-response","805","1375890","0.0-805.0","6o2k6cn9law","1381","","13","","",""
"html-keyboard-response","806","1379995","0.0-806.0","6o2k6cn9law","3595","The next block will be similar to the last block as again you will receive feedback after you have typed in the word that you have heard. Please make sure to note if there is a difference between what you typed and what the word really is.","13","","",""
"html-keyboard-response","807","1382010","0.0-807.0","6o2k6cn9law","null","<div id=""countdown"">***</div>","null","","",""
"audio-keyboard-response","808","1382466","0.0-808.0","6o2k6cn9law","null","perceptual_learning_stimuli/f3/r_box.wav","null","","",""
"survey-text","809","1386124","0.0-809.0","6o2k6cn9law","3653.5","","","{""Q0"":""books""}","box","books"
"html-keyboard-response","810","1388141","0.0-810.0","6o2k6cn9law","null","box","null","","",""
"audio-keyboard-response","811","1389896","0.0-811.0","6o2k6cn9law","null","","null","","",""
"html-keyboard-response","812","1391936","0.0-812.0","6o2k6cn9law","null","<div id=""countdown"">***</div>","null","","",""
"audio-keyboard-response","813","1392267","0.0-813.0","6o2k6cn9law","null","perceptual_learning_stimuli/f3/r_heed.wav","null","","",""
"survey-text","814","1394212","0.0-814.0","6o2k6cn9law","1941.1000000000931","","","{""Q0"":""greed""}","heed","greed"
"html-keyboard-response","815","1396246","0.0-815.0","6o2k6cn9law","null","heed","null","","",""
"audio-keyboard-response","816","1398007","0.0-816.0","6o2k6cn9law","null","","null","","",""
"html-keyboard-response","817","1400017","0.0-817.0","6o2k6cn9law","null","<div id=""countdown"">***</div>","null","","",""
"audio-keyboard-response","818","1400548","0.0-818.0","6o2k6cn9law","null","perceptual_learning_stimuli/f3/r_flaunt.wav","null","","",""
"survey-text","819","1403276","0.0-819.0","6o2k6cn9law","2725.100000000093","","","{""Q0"":""flood""}","flaunt","flood"
"html-keyboard-response","820","1405317","0.0-820.0","6o2k6cn9law","null","flaunt","null","","",""
"audio-keyboard-response","821","1407087","0.0-821.0","6o2k6cn9law","null","","null","","",""
"html-keyboard-response","822","1409117","0.0-822.0","6o2k6cn9law","null","<div id=""countdown"">***</div>","null","","",""
"audio-keyboard-response","823","1409658","0.0-823.0","6o2k6cn9law","null","perceptual_learning_stimuli/f3/r_stress.wav","null","","",""
"survey-text","824","1411268","0.0-824.0","6o2k6cn9law","1607.8000000002794","","","{""Q0"":""stress""}","stress","stress"
"html-keyboard-response","825","1413287","0.0-825.0","6o2k6cn9law","null","stress","null","","",""
"audio-keyboard-response","826","1415048","0.0-826.0","6o2k6cn9law","null","","null","","",""
"html-keyboard-response","827","1417078","0.0-827.0","6o2k6cn9law","null","<div id=""countdown"">***</div>","null","","",""
"audio-keyboard-response","828","1417309","0.0-828.0","6o2k6cn9law","null","perceptual_learning_stimuli/f3/r_cat.wav","null","","",""
"survey-text","829","1419596","0.0-829.0","6o2k6cn9law","2285","","","{""Q0"":""pat""}","cat","pat"
"html-keyboard-response","830","1421628","0.0-830.0","6o2k6cn9law","null","cat","null","","",""
"audio-keyboard-response","831","1423388","0.0-831.0","6o2k6cn9law","null","","null","","",""
"html-keyboard-response","832","1425408","0.0-832.0","6o2k6cn9law","null","<div id=""countdown"">***</div>","null","","",""
"audio-keyboard-response","833","1425749","0.0-833.0","6o2k6cn9law","null","perceptual_learning_stimuli/f3/r_sip.wav","null","","",""
"survey-text","834","1427516","0.0-834.0","6o2k6cn9law","1763.4000000003725","","","{""Q0"":""soup""}","sip","soup"
"html-keyboard-response","835","1429538","0.0-835.0","6o2k6cn9law","null","sip","null","","",""
"audio-keyboard-response","836","1431309","0.0-836.0","6o2k6cn9law","null","","null","","",""
"html-keyboard-response","837","1433319","0.0-837.0","6o2k6cn9law","null","<div id=""countdown"">***</div>","null","","",""
"audio-keyboard-response","838","1433710","0.0-838.0","6o2k6cn9law","null","perceptual_learning_stimuli/f3/r_wasp.wav","null","","",""
"survey-text","839","1435524","0.0-839.0","6o2k6cn9law","1810.8999999999069","","","{""Q0"":""risk""}","wasp","risk"
"html-keyboard-response","840","1437559","0.0-840.0","6o2k6cn9law","null","wasp","null","","",""
"audio-keyboard-response","841","1439319","0.0-841.0","6o2k6cn9law","null","","null","","",""
"html-keyboard-response","842","1441339","0.0-842.0","6o2k6cn9law","null","<div id=""countdown"">***</div>","null","","",""
"audio-keyboard-response","843","1441620","0.0-843.0","6o2k6cn9law","null","perceptual_learning_stimuli/f3/r_hut.wav","null","","",""
"survey-text","844","1442164","0.0-844.0","6o2k6cn9law","542.1999999997206","","","{""Q0"":""""}","hut",""
"html-keyboard-response","845","1444185","0.0-845.0","6o2k6cn9law","null","hut","null","","",""
"audio-keyboard-response","846","1445960","0.0-846.0","6o2k6cn9law","null","","null","","",""
