"trial_type","trial_index","time_elapsed","internal_node_id","rt","stimulus","button_pressed","key_press","rt_audio","designation","responded_to_audio","N","TYPE","HIT","FA","HIT_1B","HIT_2B","HIT_3B","FA_1B","FA_2B","FA_3B"
"pavlovia","0","4","0.0-0.0","","","","","","","","","","","","","","","","",""
"html-button-response","1","23655","0.0-1.0-0.0-0.0","23650","<p>You will now complete an auditory memory task. This will take approximately 15 minutes.</p><p>To learn more about the task, please advance to the next screen.","0","","","","","","","","","","","","","",""
"html-button-response","2","34406","0.0-1.0-0.0-1.0","10493","<p>In this task, you will hear a sequence of letters. The letters will be presented one at a time, and a new sound will play every 2.5 seconds.<p>Your job is to listen closely to these sounds for specific kinds of <b>repeats</b>.</p>","0","","","","","","","","","","","","","",""
"html-button-response","3","43878","0.0-1.0-0.0-2.0","9206","<p>If you are asked to complete a <b>1-back</b>, you must press SPACEBAR every time the current sound matches the sound presented <b>one</b> position previously.<br>Otherwise, you do not have to respond.</p><p>For example, imagine you heard the following sound sequence:</p><p style='color:darkblue'>B...D...<b style='color:red'>D</b>...F...<b style='color:red'>F</b>...<b style='color:red'>F</b>...C...E...</p><p>You would respond to the sounds printed in <b style='color:red'>red</b>, as these were repeated <b>one</b> position previously.</p><p></p>","0","","","","","","","","","","","","","",""
"html-button-response","4","52102","0.0-1.0-0.0-3.0","7965","<p>If you are asked to complete a <b>2-back</b>, you must press SPACEBAR every time the current sound matches the sound presented <b>two</b> positions previously.<br>Otherwise, you do not have to respond.</p><p>For example, imagine you heard the following sound sequence:</p><p style='color:darkblue'>B...D...<b style='color:red'>B</b>...C...<b style='color:red'>B</b>...<b style='color:red'>C</b>...E...F...</p><p>You would respond to the sounds printed in <b style='color:red'>red</b>, as these were repeated <b>two</b> positions previously.</p><p></p>","0","","","","","","","","","","","","","",""
"html-button-response","5","58270","0.0-1.0-0.0-4.0","5903","<p>If you are asked to complete a <b>3-back</b>, you must press SPACEBAR every time the current sound matches the sound presented <b>three</b> positions previously.<br>Otherwise, you do not have to respond.</p><p>For example, imagine you heard the following sound sequence:</p><p style='color:darkblue'>B...D...G...<b style='color:red'>B</b>...<b style='color:red'>D</b>...C...E...<b style='color:red'>D</b>...</p><p>You would respond to the sounds printed in <b style='color:red'>red</b>, as these were repeated <b>three</b> positions previously.</p><p></p>","0","","","","","","","","","","","","","",""
"html-button-response","6","62685","0.0-1.0-0.0-5.0","4155","<p>As you can imagine, the task becomes harder as the delay (1, 2, or 3) increases.</p><p>Please make sure you are in a quiet listening environment and free from distraction.<br>You will receive breaks approximately every 90 seconds to minimize fatigue.</p>","0","","","","","","","","","","","","","",""
"html-button-response","7","64461","0.0-1.0-0.0-6.0","1517","<p>This concludes the introduction to the memory task.</p><p>Please advance to the next screen to receive further instructions.</p>","0","","","","","","","","","","","","","",""
"html-button-response","8","67902","0.0-1.0-1.0-0.0","3168","<p>You will now complete a <strong>1-back.</strong></p><p>Remember, this means that you should press SPACEBAR every time the sound you hear matches the one presented <strong>1</strong> position(s) previously.</p>","0","","","","","","","","","","","","","",""
"audio-keyboard-response","9","70422","0.0-1.0-1.0-1.0-0.0","null","letters/5.wav","","null","null","n-back-trial","0","1","FIRSTS","","0","","","","","",""
"audio-keyboard-response","10","72942","0.0-1.0-1.0-1.1-0.1","null","letters/6.wav","","null","null","n-back-trial","0","1","NT","","0","","","","","",""
"audio-keyboard-response","11","75462","0.0-1.0-1.0-1.2-0.2","null","letters/4.wav","","null","null","n-back-trial","0","1","NT","","0","","","","","",""
"audio-keyboard-response","12","77982","0.0-1.0-1.0-1.3-0.3","null","letters/3.wav","","null","null","n-back-trial","0","1","NT","","0","","","","","",""
"audio-keyboard-response","13","80503","0.0-1.0-1.0-1.4-0.4","null","letters/8.wav","","null","null","n-back-trial","0","1","NT","","0","","","","","",""
"audio-keyboard-response","14","83013","0.0-1.0-1.0-1.5-0.5","1019","letters/8.wav","","32","1019","n-back-trial","1","1","T","1","","","","","","",""
"audio-keyboard-response","15","85533","0.0-1.0-1.0-1.6-0.6","861","letters/8.wav","","32","861","n-back-trial","1","1","T","1","","","","","","",""
"audio-keyboard-response","16","88053","0.0-1.0-1.0-1.7-0.7","691","letters/8.wav","","32","691","n-back-trial","1","1","T","1","","","","","","",""
"audio-keyboard-response","17","90562","0.0-1.0-1.0-1.8-0.8","null","letters/3.wav","","null","null","n-back-trial","0","1","NT","","0","","","","","",""
"audio-keyboard-response","18","93083","0.0-1.0-1.0-1.9-0.9","928","letters/3.wav","","32","928","n-back-trial","1","1","T","1","","","","","","",""
"audio-keyboard-response","19","95604","0.0-1.0-1.0-1.10-0.10","null","letters/2.wav","","null","null","n-back-trial","0","1","NT","","0","","","","","",""
"audio-keyboard-response","20","98123","0.0-1.0-1.0-1.11-0.11","null","letters/7.wav","","null","null","n-back-trial","0","1","NT","","0","","","","","",""
"audio-keyboard-response","21","100634","0.0-1.0-1.0-1.12-0.12","null","letters/2.wav","","null","null","n-back-trial","0","1","NT","","0","","","","","",""
"audio-keyboard-response","22","103154","0.0-1.0-1.0-1.13-0.13","null","letters/7.wav","","null","null","n-back-trial","0","1","NT","","0","","","","","",""
"audio-keyboard-response","23","105664","0.0-1.0-1.0-1.14-0.14","619","letters/7.wav","","32","619","n-back-trial","1","1","T","1","","","","","","",""
"audio-keyboard-response","24","108182","0.0-1.0-1.0-1.15-0.15","null","letters/8.wav","","null","null","n-back-trial","0","1","NT","","0","","","","","",""
"audio-keyboard-response","25","110694","0.0-1.0-1.0-1.16-0.16","null","letters/2.wav","","null","null","n-back-trial","0","1","NT","","0","","","","","",""
"audio-keyboard-response","26","113214","0.0-1.0-1.0-1.17-0.17","null","letters/7.wav","","null","null","n-back-trial","0","1","NT","","0","","","","","",""
"audio-keyboard-response","27","115724","0.0-1.0-1.0-1.18-0.18","null","letters/6.wav","","null","null","n-back-trial","0","1","NT","","0","","","","","",""
"audio-keyboard-response","28","118244","0.0-1.0-1.0-1.19-0.19","null","letters/3.wav","","null","null","n-back-trial","0","1","NT","","0","","","","","",""
"audio-keyboard-response","29","120765","0.0-1.0-1.0-1.20-0.20","861","letters/3.wav","","32","861","n-back-trial","1","1","T","1","","","","","","",""
"audio-keyboard-response","30","123286","0.0-1.0-1.0-1.21-0.21","null","letters/4.wav","","null","null","n-back-trial","0","1","NT","","0","","","","","",""
"audio-keyboard-response","31","125795","0.0-1.0-1.0-1.22-0.22","531","letters/4.wav","","32","531","n-back-trial","1","1","T","1","","","","","","",""
"audio-keyboard-response","32","128315","0.0-1.0-1.0-1.23-0.23","null","letters/8.wav","","null","null","n-back-trial","0","1","NT","","0","","","","","",""
"audio-keyboard-response","33","130826","0.0-1.0-1.0-1.24-0.24","null","letters/1.wav","","null","null","n-back-trial","0","1","NT","","0","","","","","",""
"audio-keyboard-response","34","133336","0.0-1.0-1.0-1.25-0.25","null","letters/5.wav","","null","null","n-back-trial","0","1","NT","","0","","","","","",""
"audio-keyboard-response","35","135856","0.0-1.0-1.0-1.26-0.26","null","letters/8.wav","","null","null","n-back-trial","0","1","NT","","0","","","","","",""
"audio-keyboard-response","36","138366","0.0-1.0-1.0-1.27-0.27","661","letters/8.wav","","32","661","n-back-trial","1","1","T","1","","","","","","",""
"audio-keyboard-response","37","140887","0.0-1.0-1.0-1.28-0.28","null","letters/5.wav","","null","null","n-back-trial","0","1","NT","","0","","","","","",""
"audio-keyboard-response","38","143406","0.0-1.0-1.0-1.29-0.29","480","letters/5.wav","","32","480","n-back-trial","1","1","T","1","","","","","","",""
"audio-keyboard-response","39","145923","0.0-1.0-1.0-1.30-0.30","659","letters/5.wav","","32","659","n-back-trial","1","1","T","1","","","","","","",""
"html-button-response","40","173870","0.0-1.0-1.0-2.0","27946","<p>You may take a short break if you wish.</p><p>Click the button below when you are ready to continue.</p>","0","","","","","","","","","","","","","",""
"html-button-response","41","178470","0.0-1.0-1.1-0.1","4598","<p>You will now complete a <strong>1-back.</strong></p><p>Remember, this means that you should press SPACEBAR every time the sound you hear matches the one presented <strong>1</strong> position(s) previously.</p>","0","","","","","","","","","","","","","",""
"audio-keyboard-response","42","180981","0.0-1.0-1.1-1.31-0.31","null","letters/3.wav","","null","null","n-back-trial","0","1","FIRSTS","","0","","","","","",""
"audio-keyboard-response","43","183501","0.0-1.0-1.1-1.32-0.32","null","letters/1.wav","","null","null","n-back-trial","0","1","NT","","0","","","","","",""
"audio-keyboard-response","44","186020","0.0-1.0-1.1-1.33-0.33","null","letters/1.wav","","null","null","n-back-trial","0","1","T","0","","","","","","",""
"audio-keyboard-response","45","188532","0.0-1.0-1.1-1.34-0.34","760","letters/1.wav","","32","760","n-back-trial","1","1","T","1","","","","","","",""
"audio-keyboard-response","46","191052","0.0-1.0-1.1-1.35-0.35","null","letters/7.wav","","null","null","n-back-trial","0","1","NT","","0","","","","","",""
"audio-keyboard-response","47","193572","0.0-1.0-1.1-1.36-0.36","null","letters/2.wav","","null","null","n-back-trial","0","1","NT","","0","","","","","",""
"audio-keyboard-response","48","196092","0.0-1.0-1.1-1.37-0.37","null","letters/1.wav","","null","null","n-back-trial","0","1","NT","","0","","","","","",""
"audio-keyboard-response","49","198612","0.0-1.0-1.1-1.38-0.38","null","letters/4.wav","","null","null","n-back-trial","0","1","NT","","0","","","","","",""
"audio-keyboard-response","50","201123","0.0-1.0-1.1-1.39-0.39","null","letters/4.wav","","null","null","n-back-trial","0","1","T","0","","","","","","",""
"audio-keyboard-response","51","203632","0.0-1.0-1.1-1.40-0.40","531","letters/4.wav","","32","531","n-back-trial","1","1","T","1","","","","","","",""
"audio-keyboard-response","52","206142","0.0-1.0-1.1-1.41-0.41","null","letters/5.wav","","null","null","n-back-trial","0","1","NT","","0","","","","","",""
"audio-keyboard-response","53","208663","0.0-1.0-1.1-1.42-0.42","null","letters/8.wav","","null","null","n-back-trial","0","1","NT","","0","","","","","",""
"audio-keyboard-response","54","211183","0.0-1.0-1.1-1.43-0.43","null","letters/2.wav","","null","null","n-back-trial","0","1","NT","","0","","","","","",""
"audio-keyboard-response","55","213693","0.0-1.0-1.1-1.44-0.44","null","letters/2.wav","","null","null","n-back-trial","0","1","T","0","","","","","","",""
"audio-keyboard-response","56","216213","0.0-1.0-1.1-1.45-0.45","699","letters/2.wav","","32","699","n-back-trial","1","1","T","1","","","","","","",""
"audio-keyboard-response","57","218733","0.0-1.0-1.1-1.46-0.46","891","letters/2.wav","","32","891","n-back-trial","1","1","T","1","","","","","","",""
"audio-keyboard-response","58","221254","0.0-1.0-1.1-1.47-0.47","null","letters/8.wav","","null","null","n-back-trial","0","1","NT","","0","","","","","",""
"audio-keyboard-response","59","223763","0.0-1.0-1.1-1.48-0.48","null","letters/3.wav","","null","null","n-back-trial","0","1","NT","","0","","","","","",""
"audio-keyboard-response","60","226283","0.0-1.0-1.1-1.49-0.49","null","letters/7.wav","","null","null","n-back-trial","0","1","NT","","0","","","","","",""
"audio-keyboard-response","61","228794","0.0-1.0-1.1-1.50-0.50","null","letters/8.wav","","null","null","n-back-trial","0","1","NT","","0","","","","","",""
"audio-keyboard-response","62","231314","0.0-1.0-1.1-1.51-0.51","null","letters/6.wav","","null","null","n-back-trial","0","1","NT","","0","","","","","",""
"audio-keyboard-response","63","233834","0.0-1.0-1.1-1.52-0.52","null","letters/1.wav","","null","null","n-back-trial","0","1","NT","","0","","","","","",""
"audio-keyboard-response","64","236349","0.0-1.0-1.1-1.53-0.53","null","letters/8.wav","","null","null","n-back-trial","0","1","NT","","0","","","","","",""
"audio-keyboard-response","65","238854","0.0-1.0-1.1-1.54-0.54","null","letters/7.wav","","null","null","n-back-trial","0","1","NT","","0","","","","","",""
"audio-keyboard-response","66","241375","0.0-1.0-1.1-1.55-0.55","null","letters/7.wav","","null","null","n-back-trial","0","1","T","0","","","","","","",""
"audio-keyboard-response","67","243895","0.0-1.0-1.1-1.56-0.56","null","letters/1.wav","","null","null","n-back-trial","0","1","NT","","0","","","","","",""
"audio-keyboard-response","68","246415","0.0-1.0-1.1-1.57-0.57","null","letters/8.wav","","null","null","n-back-trial","0","1","NT","","0","","","","","",""
"audio-keyboard-response","69","248935","0.0-1.0-1.1-1.58-0.58","null","letters/8.wav","","null","null","n-back-trial","0","1","T","0","","","","","","",""
"audio-keyboard-response","70","251455","0.0-1.0-1.1-1.59-0.59","819","letters/8.wav","","32","819","n-back-trial","1","1","T","1","","","","","","",""
"audio-keyboard-response","71","253975","0.0-1.0-1.1-1.60-0.60","null","letters/3.wav","","null","null","n-back-trial","0","1","NT","","0","","","","","",""
"audio-keyboard-response","72","256495","0.0-1.0-1.1-1.61-0.61","null","letters/4.wav","","null","null","n-back-trial","0","1","NT","","0","","","","","",""
"html-button-response","73","261670","0.0-1.0-1.1-2.1","5174","<p>You may take a short break if you wish.</p><p>Click the button below when you are ready to continue.</p>","0","","","","","","","","","","","","","",""
"html-button-response","74","264822","0.0-1.0-1.2-0.2","3149","<p>You will now complete a <strong>1-back.</strong></p><p>Remember, this means that you should press SPACEBAR every time the sound you hear matches the one presented <strong>1</strong> position(s) previously.</p>","0","","","","","","","","","","","","","",""
"audio-keyboard-response","75","267336","0.0-1.0-1.2-1.62-0.62","null","letters/1.wav","","null","null","n-back-trial","0","1","FIRSTS","","0","","","","","",""
"audio-keyboard-response","76","269846","0.0-1.0-1.2-1.63-0.63","null","letters/8.wav","","null","null","n-back-trial","0","1","NT","","0","","","","","",""
"audio-keyboard-response","77","272356","0.0-1.0-1.2-1.64-0.64","null","letters/6.wav","","null","null","n-back-trial","0","1","NT","","0","","","","","",""
"audio-keyboard-response","78","274876","0.0-1.0-1.2-1.65-0.65","null","letters/6.wav","","null","null","n-back-trial","0","1","T","0","","","","","","",""
"audio-keyboard-response","79","277396","0.0-1.0-1.2-1.66-0.66","819","letters/7.wav","","32","819","n-back-trial","1","1","NT","","1","","","","","",""
"audio-keyboard-response","80","279916","0.0-1.0-1.2-1.67-0.67","null","letters/7.wav","","null","null","n-back-trial","0","1","T","0","","","","","","",""
"audio-keyboard-response","81","282437","0.0-1.0-1.2-1.68-0.68","680","letters/7.wav","","32","680","n-back-trial","1","1","T","1","","","","","","",""
"audio-keyboard-response","82","284957","0.0-1.0-1.2-1.69-0.69","null","letters/3.wav","","null","null","n-back-trial","0","1","NT","","0","","","","","",""
"audio-keyboard-response","83","287477","0.0-1.0-1.2-1.70-0.70","null","letters/3.wav","","null","null","n-back-trial","0","1","T","0","","","","","","",""
"audio-keyboard-response","84","289997","0.0-1.0-1.2-1.71-0.71","null","letters/2.wav","","null","null","n-back-trial","0","1","NT","","0","","","","","",""
"audio-keyboard-response","85","292517","0.0-1.0-1.2-1.72-0.72","null","letters/6.wav","","null","null","n-back-trial","0","1","NT","","0","","","","","",""
"audio-keyboard-response","86","295037","0.0-1.0-1.2-1.73-0.73","null","letters/8.wav","","null","null","n-back-trial","0","1","NT","","0","","","","","",""
"audio-keyboard-response","87","297557","0.0-1.0-1.2-1.74-0.74","null","letters/2.wav","","null","null","n-back-trial","0","1","NT","","0","","","","","",""
"audio-keyboard-response","88","300078","0.0-1.0-1.2-1.75-0.75","null","letters/6.wav","","null","null","n-back-trial","0","1","NT","","0","","","","","",""
"audio-keyboard-response","89","302594","0.0-1.0-1.2-1.76-0.76","null","letters/1.wav","","null","null","n-back-trial","0","1","NT","","0","","","","","",""
"audio-keyboard-response","90","305118","0.0-1.0-1.2-1.77-0.77","null","letters/1.wav","","null","null","n-back-trial","0","1","T","0","","","","","","",""
"audio-keyboard-response","91","307638","0.0-1.0-1.2-1.78-0.78","672","letters/1.wav","","32","672","n-back-trial","1","1","T","1","","","","","","",""
"audio-keyboard-response","92","310158","0.0-1.0-1.2-1.79-0.79","1032","letters/1.wav","","32","1032","n-back-trial","1","1","T","1","","","","","","",""
"audio-keyboard-response","93","312678","0.0-1.0-1.2-1.80-0.80","null","letters/5.wav","","null","null","n-back-trial","0","1","NT","","0","","","","","",""
"audio-keyboard-response","94","315199","0.0-1.0-1.2-1.81-0.81","null","letters/6.wav","","null","null","n-back-trial","0","1","NT","","0","","","","","",""
"audio-keyboard-response","95","317719","0.0-1.0-1.2-1.82-0.82","null","letters/8.wav","","null","null","n-back-trial","0","1","NT","","0","","","","","",""
"audio-keyboard-response","96","320239","0.0-1.0-1.2-1.83-0.83","null","letters/2.wav","","null","null","n-back-trial","0","1","NT","","0","","","","","",""
"audio-keyboard-response","97","322759","0.0-1.0-1.2-1.84-0.84","1952","letters/8.wav","","32","1952","n-back-trial","1","1","NT","","1","","","","","",""
"audio-keyboard-response","98","325279","0.0-1.0-1.2-1.85-0.85","null","letters/8.wav","","null","null","n-back-trial","0","1","T","0","","","","","","",""
"audio-keyboard-response","99","327799","0.0-1.0-1.2-1.86-0.86","null","letters/4.wav","","null","null","n-back-trial","0","1","NT","","0","","","","","",""
"audio-keyboard-response","100","330319","0.0-1.0-1.2-1.87-0.87","null","letters/4.wav","","null","null","n-back-trial","0","1","T","0","","","","","","",""
"audio-keyboard-response","101","332836","0.0-1.0-1.2-1.88-0.88","941","letters/4.wav","","32","941","n-back-trial","1","1","T","1","","","","","","",""
"audio-keyboard-response","102","335359","0.0-1.0-1.2-1.89-0.89","null","letters/5.wav","","null","null","n-back-trial","0","1","NT","","0","","","","","",""
"audio-keyboard-response","103","337880","0.0-1.0-1.2-1.90-0.90","560","letters/4.wav","","32","560","n-back-trial","1","1","NT","","1","","","","","",""
"audio-keyboard-response","104","340400","0.0-1.0-1.2-1.91-0.91","null","letters/1.wav","","null","null","n-back-trial","0","1","NT","","0","","","","","",""
"audio-keyboard-response","105","342920","0.0-1.0-1.2-1.92-0.92","null","letters/3.wav","","null","null","n-back-trial","0","1","NT","","0","","","","","",""
"html-button-response","106","346454","0.0-1.0-1.2-2.2","3534","<p>You may take a short break if you wish.</p><p>Click the button below when you are ready to continue.</p>","0","","","","","","","","","","","","","",""
"html-button-response","107","349078","0.0-1.0-1.3-0.3","2623","<p>You will now complete a <strong>1-back.</strong></p><p>Remember, this means that you should press SPACEBAR every time the sound you hear matches the one presented <strong>1</strong> position(s) previously.</p>","0","","","","","","","","","","","","","",""
"audio-keyboard-response","108","351580","0.0-1.0-1.3-1.93-0.93","null","letters/3.wav","","null","null","n-back-trial","0","1","FIRSTS","","0","","","","","",""
"audio-keyboard-response","109","354090","0.0-1.0-1.3-1.94-0.94","null","letters/3.wav","","null","null","n-back-trial","0","1","T","0","","","","","","",""
"audio-keyboard-response","110","356606","0.0-1.0-1.3-1.95-0.95","null","letters/2.wav","","null","null","n-back-trial","0","1","NT","","0","","","","","",""
"audio-keyboard-response","111","359110","0.0-1.0-1.3-1.96-0.96","null","letters/2.wav","","null","null","n-back-trial","0","1","T","0","","","","","","",""
"audio-keyboard-response","112","361631","0.0-1.0-1.3-1.97-0.97","null","letters/8.wav","","null","null","n-back-trial","0","1","NT","","0","","","","","",""
"audio-keyboard-response","113","364151","0.0-1.0-1.3-1.98-0.98","null","letters/8.wav","","null","null","n-back-trial","0","1","T","0","","","","","","",""
"audio-keyboard-response","114","366661","0.0-1.0-1.3-1.99-0.99","null","letters/4.wav","","null","null","n-back-trial","0","1","NT","","0","","","","","",""
"audio-keyboard-response","115","369171","0.0-1.0-1.3-1.100-0.100","null","letters/4.wav","","null","null","n-back-trial","0","1","T","0","","","","","","",""
"audio-keyboard-response","116","371691","0.0-1.0-1.3-1.101-0.101","null","letters/8.wav","","null","null","n-back-trial","0","1","NT","","0","","","","","",""
"audio-keyboard-response","117","374211","0.0-1.0-1.3-1.102-0.102","null","letters/5.wav","","null","null","n-back-trial","0","1","NT","","0","","","","","",""
"audio-keyboard-response","118","376721","0.0-1.0-1.3-1.103-0.103","null","letters/6.wav","","null","null","n-back-trial","0","1","NT","","0","","","","","",""
"audio-keyboard-response","119","379241","0.0-1.0-1.3-1.104-0.104","null","letters/2.wav","","null","null","n-back-trial","0","1","NT","","0","","","","","",""
"audio-keyboard-response","120","381762","0.0-1.0-1.3-1.105-0.105","null","letters/2.wav","","null","null","n-back-trial","0","1","T","0","","","","","","",""
"audio-keyboard-response","121","384282","0.0-1.0-1.3-1.106-0.106","null","letters/1.wav","","null","null","n-back-trial","0","1","NT","","0","","","","","",""
"audio-keyboard-response","122","386790","0.0-1.0-1.3-1.107-0.107","null","letters/4.wav","","null","null","n-back-trial","0","1","NT","","0","","","","","",""
"audio-keyboard-response","123","389312","0.0-1.0-1.3-1.108-0.108","null","letters/5.wav","","null","null","n-back-trial","0","1","NT","","0","","","","","",""
"audio-keyboard-response","124","391832","0.0-1.0-1.3-1.109-0.109","null","letters/5.wav","","null","null","n-back-trial","0","1","T","0","","","","","","",""
"audio-keyboard-response","125","394343","0.0-1.0-1.3-1.110-0.110","null","letters/1.wav","","null","null","n-back-trial","0","1","NT","","0","","","","","",""
"audio-keyboard-response","126","396863","0.0-1.0-1.3-1.111-0.111","null","letters/1.wav","","null","null","n-back-trial","0","1","T","0","","","","","","",""
"audio-keyboard-response","127","399383","0.0-1.0-1.3-1.112-0.112","null","letters/8.wav","","null","null","n-back-trial","0","1","NT","","0","","","","","",""
"audio-keyboard-response","128","401903","0.0-1.0-1.3-1.113-0.113","null","letters/8.wav","","null","null","n-back-trial","0","1","T","0","","","","","","",""
"audio-keyboard-response","129","404423","0.0-1.0-1.3-1.114-0.114","null","letters/7.wav","","null","null","n-back-trial","0","1","NT","","0","","","","","",""
"audio-keyboard-response","130","406943","0.0-1.0-1.3-1.115-0.115","null","letters/3.wav","","null","null","n-back-trial","0","1","NT","","0","","","","","",""
"audio-keyboard-response","131","409463","0.0-1.0-1.3-1.116-0.116","null","letters/5.wav","","null","null","n-back-trial","0","1","NT","","0","","","","","",""
"audio-keyboard-response","132","411983","0.0-1.0-1.3-1.117-0.117","null","letters/5.wav","","null","null","n-back-trial","0","1","T","0","","","","","","",""
"audio-keyboard-response","133","414504","0.0-1.0-1.3-1.118-0.118","null","letters/1.wav","","null","null","n-back-trial","0","1","NT","","0","","","","","",""
"audio-keyboard-response","134","417024","0.0-1.0-1.3-1.119-0.119","null","letters/7.wav","","null","null","n-back-trial","0","1","NT","","0","","","","","",""
"audio-keyboard-response","135","419534","0.0-1.0-1.3-1.120-0.120","null","letters/3.wav","","null","null","n-back-trial","0","1","NT","","0","","","","","",""
"audio-keyboard-response","136","422042","0.0-1.0-1.3-1.121-0.121","null","letters/3.wav","","null","null","n-back-trial","0","1","T","0","","","","","","",""
"audio-keyboard-response","137","424554","0.0-1.0-1.3-1.122-0.122","null","letters/6.wav","","null","null","n-back-trial","0","1","NT","","0","","","","","",""
"audio-keyboard-response","138","427064","0.0-1.0-1.3-1.123-0.123","1320","letters/3.wav","","32","1320","n-back-trial","1","1","NT","","1","","","","","",""
"html-button-response","139","431966","0.0-1.0-1.3-2.3","4901","<p>You may take a short break if you wish.</p><p>Click the button below when you are ready to continue.</p>","0","","","","","","","","","","","","","",""
"html-button-response","140","439262","0.0-1.0-1.4-0.4","7295","<p>You will now complete a <strong>1-back.</strong></p><p>Remember, this means that you should press SPACEBAR every time the sound you hear matches the one presented <strong>1</strong> position(s) previously.</p>","0","","","","","","","","","","","","","",""
"audio-keyboard-response","141","441775","0.0-1.0-1.4-1.124-0.124","null","letters/2.wav","","null","null","n-back-trial","0","1","FIRSTS","","0","","","","","",""
"audio-keyboard-response","142","444295","0.0-1.0-1.4-1.125-0.125","null","letters/2.wav","","null","null","n-back-trial","0","1","T","0","","","","","","",""
"audio-keyboard-response","143","446810","0.0-1.0-1.4-1.126-0.126","null","letters/7.wav","","null","null","n-back-trial","0","1","NT","","0","","","","","",""
"audio-keyboard-response","144","449316","0.0-1.0-1.4-1.127-0.127","null","letters/7.wav","","null","null","n-back-trial","0","1","T","0","","","","","","",""
"audio-keyboard-response","145","451825","0.0-1.0-1.4-1.128-0.128","949","letters/7.wav","","32","949","n-back-trial","1","1","T","1","","","","","","",""
"audio-keyboard-response","146","454331","0.0-1.0-1.4-1.129-0.129","840","letters/7.wav","","32","840","n-back-trial","1","1","T","1","","","","","","",""
"audio-keyboard-response","147","456846","0.0-1.0-1.4-1.130-0.130","null","letters/2.wav","","null","null","n-back-trial","0","1","NT","","0","","","","","",""
"audio-keyboard-response","148","459366","0.0-1.0-1.4-1.131-0.131","null","letters/2.wav","","null","null","n-back-trial","0","1","T","0","","","","","","",""
"audio-keyboard-response","149","461876","0.0-1.0-1.4-1.132-0.132","null","letters/3.wav","","null","null","n-back-trial","0","1","NT","","0","","","","","",""
"audio-keyboard-response","150","464386","0.0-1.0-1.4-1.133-0.133","null","letters/3.wav","","null","null","n-back-trial","0","1","T","0","","","","","","",""
"audio-keyboard-response","151","466896","0.0-1.0-1.4-1.134-0.134","null","letters/1.wav","","null","null","n-back-trial","0","1","NT","","0","","","","","",""
"audio-keyboard-response","152","469417","0.0-1.0-1.4-1.135-0.135","1392","letters/2.wav","","32","1392","n-back-trial","1","1","NT","","1","","","","","",""
"audio-keyboard-response","153","471918","0.0-1.0-1.4-1.136-0.136","2400","letters/1.wav","","32","2400","n-back-trial","1","1","NT","","1","","","","","",""
"audio-keyboard-response","154","474437","0.0-1.0-1.4-1.137-0.137","null","letters/3.wav","","null","null","n-back-trial","0","1","NT","","0","","","","","",""
"audio-keyboard-response","155","476947","0.0-1.0-1.4-1.138-0.138","1008","letters/1.wav","","32","1008","n-back-trial","1","1","NT","","1","","","","","",""
"audio-keyboard-response","156","479467","0.0-1.0-1.4-1.139-0.139","null","letters/2.wav","","null","null","n-back-trial","0","1","NT","","0","","","","","",""
"audio-keyboard-response","157","481987","0.0-1.0-1.4-1.140-0.140","null","letters/4.wav","","null","null","n-back-trial","0","1","NT","","0","","","","","",""
"audio-keyboard-response","158","484497","0.0-1.0-1.4-1.141-0.141","null","letters/6.wav","","null","null","n-back-trial","0","1","NT","","0","","","","","",""
"audio-keyboard-response","159","487017","0.0-1.0-1.4-1.142-0.142","null","letters/8.wav","","null","null","n-back-trial","0","1","NT","","0","","","","","",""
"audio-keyboard-response","160","489538","0.0-1.0-1.4-1.143-0.143","null","letters/5.wav","","null","null","n-back-trial","0","1","NT","","0","","","","","",""
"audio-keyboard-response","161","492058","0.0-1.0-1.4-1.144-0.144","null","letters/5.wav","","null","null","n-back-trial","0","1","T","0","","","","","","",""
"audio-keyboard-response","162","494578","0.0-1.0-1.4-1.145-0.145","691","letters/5.wav","","32","691","n-back-trial","1","1","T","1","","","","","","",""
"audio-keyboard-response","163","497098","0.0-1.0-1.4-1.146-0.146","691","letters/5.wav","","32","691","n-back-trial","1","1","T","1","","","","","","",""
"audio-keyboard-response","164","499618","0.0-1.0-1.4-1.147-0.147","null","letters/6.wav","","null","null","n-back-trial","0","1","NT","","0","","","","","",""
"audio-keyboard-response","165","502138","0.0-1.0-1.4-1.148-0.148","null","letters/1.wav","","null","null","n-back-trial","0","1","NT","","0","","","","","",""
"audio-keyboard-response","166","504648","0.0-1.0-1.4-1.149-0.149","501","letters/6.wav","","32","501","n-back-trial","1","1","NT","","1","","","","","",""
"audio-keyboard-response","167","507168","0.0-1.0-1.4-1.150-0.150","null","letters/4.wav","","null","null","n-back-trial","0","1","NT","","0","","","","","",""
"audio-keyboard-response","168","509678","0.0-1.0-1.4-1.151-0.151","null","letters/2.wav","","null","null","n-back-trial","0","1","NT","","0","","","","","",""
"audio-keyboard-response","169","512199","0.0-1.0-1.4-1.152-0.152","null","letters/3.wav","","null","null","n-back-trial","0","1","NT","","0","","","","","",""
"audio-keyboard-response","170","514709","0.0-1.0-1.4-1.153-0.153","null","letters/3.wav","","null","null","n-back-trial","0","1","T","0","","","","","","",""
"audio-keyboard-response","171","517229","0.0-1.0-1.4-1.154-0.154","null","letters/4.wav","","null","null","n-back-trial","0","1","NT","","0","","","","","",""
"html-button-response","172","519599","0.0-1.0-1.4-2.4","2368","<p>You may take a short break if you wish.</p><p>Click the button below when you are ready to continue.</p>","0","","","","","","","","","","","","","",""
"html-button-response","173","523430","0.0-1.0-1.5-0.5","3831","<p>You will now complete a <strong>1-back.</strong></p><p>Remember, this means that you should press SPACEBAR every time the sound you hear matches the one presented <strong>1</strong> position(s) previously.</p>","0","","","","","","","","","","","","","",""
"audio-keyboard-response","174","525950","0.0-1.0-1.5-1.155-0.155","null","letters/5.wav","","null","null","n-back-trial","0","1","FIRSTS","","0","","","","","",""
"audio-keyboard-response","175","528460","0.0-1.0-1.5-1.156-0.156","null","letters/8.wav","","null","null","n-back-trial","0","1","NT","","0","","","","","",""
"audio-keyboard-response","176","530970","0.0-1.0-1.5-1.157-0.157","null","letters/6.wav","","null","null","n-back-trial","0","1","NT","","0","","","","","",""
"audio-keyboard-response","177","533490","0.0-1.0-1.5-1.158-0.158","null","letters/6.wav","","null","null","n-back-trial","0","1","T","0","","","","","","",""
"audio-keyboard-response","178","536010","0.0-1.0-1.5-1.159-0.159","672","letters/6.wav","","32","672","n-back-trial","1","1","T","1","","","","","","",""
"audio-keyboard-response","179","538530","0.0-1.0-1.5-1.160-0.160","null","letters/4.wav","","null","null","n-back-trial","0","1","NT","","0","","","","","",""
"audio-keyboard-response","180","541049","0.0-1.0-1.5-1.161-0.161","null","letters/1.wav","","null","null","n-back-trial","0","1","NT","","0","","","","","",""
"audio-keyboard-response","181","543570","0.0-1.0-1.5-1.162-0.162","null","letters/5.wav","","null","null","n-back-trial","0","1","NT","","0","","","","","",""
"audio-keyboard-response","182","546091","0.0-1.0-1.5-1.163-0.163","null","letters/7.wav","","null","null","n-back-trial","0","1","NT","","0","","","","","",""
"audio-keyboard-response","183","548611","0.0-1.0-1.5-1.164-0.164","null","letters/1.wav","","null","null","n-back-trial","0","1","NT","","0","","","","","",""
"audio-keyboard-response","184","551131","0.0-1.0-1.5-1.165-0.165","null","letters/2.wav","","null","null","n-back-trial","0","1","NT","","0","","","","","",""
"audio-keyboard-response","185","553651","0.0-1.0-1.5-1.166-0.166","null","letters/2.wav","","null","null","n-back-trial","0","1","T","0","","","","","","",""
"audio-keyboard-response","186","556171","0.0-1.0-1.5-1.167-0.167","null","letters/7.wav","","null","null","n-back-trial","0","1","NT","","0","","","","","",""
"audio-keyboard-response","187","558691","0.0-1.0-1.5-1.168-0.168","null","letters/3.wav","","null","null","n-back-trial","0","1","NT","","0","","","","","",""
"audio-keyboard-response","188","561211","0.0-1.0-1.5-1.169-0.169","null","letters/5.wav","","null","null","n-back-trial","0","1","NT","","0","","","","","",""
"audio-keyboard-response","189","563731","0.0-1.0-1.5-1.170-0.170","null","letters/5.wav","","null","null","n-back-trial","0","1","T","0","","","","","","",""
"audio-keyboard-response","190","566252","0.0-1.0-1.5-1.171-0.171","null","letters/7.wav","","null","null","n-back-trial","0","1","NT","","0","","","","","",""
"audio-keyboard-response","191","568772","0.0-1.0-1.5-1.172-0.172","null","letters/6.wav","","null","null","n-back-trial","0","1","NT","","0","","","","","",""
"audio-keyboard-response","192","571292","0.0-1.0-1.5-1.173-0.173","null","letters/2.wav","","null","null","n-back-trial","0","1","NT","","0","","","","","",""
"audio-keyboard-response","193","573812","0.0-1.0-1.5-1.174-0.174","null","letters/7.wav","","null","null","n-back-trial","0","1","NT","","0","","","","","",""
"audio-keyboard-response","194","576332","0.0-1.0-1.5-1.175-0.175","null","letters/3.wav","","null","null","n-back-trial","0","1","NT","","0","","","","","",""
"audio-keyboard-response","195","578852","0.0-1.0-1.5-1.176-0.176","null","letters/1.wav","","null","null","n-back-trial","0","1","NT","","0","","","","","",""
"audio-keyboard-response","196","581373","0.0-1.0-1.5-1.177-0.177","1469","letters/3.wav","","32","1469","n-back-trial","1","1","NT","","1","","","","","",""
"audio-keyboard-response","197","583892","0.0-1.0-1.5-1.178-0.178","null","letters/4.wav","","null","null","n-back-trial","0","1","NT","","0","","","","","",""
"audio-keyboard-response","198","586408","0.0-1.0-1.5-1.179-0.179","null","letters/4.wav","","null","null","n-back-trial","0","1","T","0","","","","","","",""
"audio-keyboard-response","199","588913","0.0-1.0-1.5-1.180-0.180","829","letters/4.wav","","32","829","n-back-trial","1","1","T","1","","","","","","",""
"audio-keyboard-response","200","591423","0.0-1.0-1.5-1.181-0.181","920","letters/4.wav","","32","920","n-back-trial","1","1","T","1","","","","","","",""
"audio-keyboard-response","201","593928","0.0-1.0-1.5-1.182-0.182","869","letters/4.wav","","32","869","n-back-trial","1","1","T","1","","","","","","",""
"audio-keyboard-response","202","596443","0.0-1.0-1.5-1.183-0.183","null","letters/1.wav","","null","null","n-back-trial","0","1","NT","","0","","","","","",""
"audio-keyboard-response","203","598963","0.0-1.0-1.5-1.184-0.184","null","letters/1.wav","","null","null","n-back-trial","0","1","T","0","","","","","","",""
"audio-keyboard-response","204","601484","0.0-1.0-1.5-1.185-0.185","549","letters/1.wav","","32","549","n-back-trial","1","1","T","1","","","","","","",""
"html-button-response","205","604390","0.0-1.0-1.5-2.5","2906","<p>You may take a short break if you wish.</p><p>Click the button below when you are ready to continue.</p>","0","","","","","","","","","","","","","",""
"html-button-response","206","643350","0.0-1.0-1.6-0.6","38959","<p>You will now complete a <strong>1-back.</strong></p><p>Remember, this means that you should press SPACEBAR every time the sound you hear matches the one presented <strong>1</strong> position(s) previously.</p>","0","","","","","","","","","","","","","",""
"audio-keyboard-response","207","645869","0.0-1.0-1.6-1.186-0.186","null","letters/3.wav","","null","null","n-back-trial","0","1","FIRSTS","","0","","","","","",""
"audio-keyboard-response","208","648389","0.0-1.0-1.6-1.187-0.187","null","letters/6.wav","","null","null","n-back-trial","0","1","NT","","0","","","","","",""
"audio-keyboard-response","209","650899","0.0-1.0-1.6-1.188-0.188","null","letters/7.wav","","null","null","n-back-trial","0","1","NT","","0","","","","","",""
"audio-keyboard-response","210","653419","0.0-1.0-1.6-1.189-0.189","null","letters/2.wav","","null","null","n-back-trial","0","1","NT","","0","","","","","",""
"audio-keyboard-response","211","655929","0.0-1.0-1.6-1.190-0.190","619","letters/2.wav","","32","619","n-back-trial","1","1","T","1","","","","","","",""
"audio-keyboard-response","212","658449","0.0-1.0-1.6-1.191-0.191","451","letters/2.wav","","32","451","n-back-trial","1","1","T","1","","","","","","",""
"audio-keyboard-response","213","660959","0.0-1.0-1.6-1.192-0.192","null","letters/1.wav","","null","null","n-back-trial","0","1","NT","","0","","","","","",""
"audio-keyboard-response","214","663479","0.0-1.0-1.6-1.193-0.193","1152","letters/2.wav","","32","1152","n-back-trial","1","1","NT","","1","","","","","",""
"audio-keyboard-response","215","665999","0.0-1.0-1.6-1.194-0.194","null","letters/6.wav","","null","null","n-back-trial","0","1","NT","","0","","","","","",""
"audio-keyboard-response","216","668509","0.0-1.0-1.6-1.195-0.195","null","letters/2.wav","","null","null","n-back-trial","0","1","NT","","0","","","","","",""
"audio-keyboard-response","217","671029","0.0-1.0-1.6-1.196-0.196","null","letters/6.wav","","null","null","n-back-trial","0","1","NT","","0","","","","","",""
"audio-keyboard-response","218","673540","0.0-1.0-1.6-1.197-0.197","null","letters/5.wav","","null","null","n-back-trial","0","1","NT","","0","","","","","",""
"audio-keyboard-response","219","676050","0.0-1.0-1.6-1.198-0.198","null","letters/4.wav","","null","null","n-back-trial","0","1","NT","","0","","","","","",""
"audio-keyboard-response","220","678570","0.0-1.0-1.6-1.199-0.199","null","letters/1.wav","","null","null","n-back-trial","0","1","NT","","0","","","","","",""
"audio-keyboard-response","221","681087","0.0-1.0-1.6-1.200-0.200","null","letters/4.wav","","null","null","n-back-trial","0","1","NT","","0","","","","","",""
"audio-keyboard-response","222","683600","0.0-1.0-1.6-1.201-0.201","null","letters/8.wav","","null","null","n-back-trial","0","1","NT","","0","","","","","",""
"audio-keyboard-response","223","686110","0.0-1.0-1.6-1.202-0.202","771","letters/8.wav","","32","771","n-back-trial","1","1","T","1","","","","","","",""
"audio-keyboard-response","224","688630","0.0-1.0-1.6-1.203-0.203","741","letters/8.wav","","32","741","n-back-trial","1","1","T","1","","","","","","",""
"audio-keyboard-response","225","691141","0.0-1.0-1.6-1.204-0.204","null","letters/2.wav","","null","null","n-back-trial","0","1","NT","","0","","","","","",""
"audio-keyboard-response","226","693661","0.0-1.0-1.6-1.205-0.205","null","letters/4.wav","","null","null","n-back-trial","0","1","NT","","0","","","","","",""
"audio-keyboard-response","227","696171","0.0-1.0-1.6-1.206-0.206","579","letters/4.wav","","32","579","n-back-trial","1","1","T","1","","","","","","",""
"audio-keyboard-response","228","698691","0.0-1.0-1.6-1.207-0.207","411","letters/4.wav","","32","411","n-back-trial","1","1","T","1","","","","","","",""
"audio-keyboard-response","229","701211","0.0-1.0-1.6-1.208-0.208","549","letters/4.wav","","32","549","n-back-trial","1","1","T","1","","","","","","",""
"audio-keyboard-response","230","703722","0.0-1.0-1.6-1.209-0.209","491","letters/4.wav","","32","491","n-back-trial","1","1","T","1","","","","","","",""
"audio-keyboard-response","231","706232","0.0-1.0-1.6-1.210-0.210","null","letters/3.wav","","null","null","n-back-trial","0","1","NT","","0","","","","","",""
"audio-keyboard-response","232","708742","0.0-1.0-1.6-1.211-0.211","null","letters/2.wav","","null","null","n-back-trial","0","1","NT","","0","","","","","",""
"audio-keyboard-response","233","711262","0.0-1.0-1.6-1.212-0.212","789","letters/2.wav","","32","789","n-back-trial","1","1","T","1","","","","","","",""
"audio-keyboard-response","234","713782","0.0-1.0-1.6-1.213-0.213","null","letters/6.wav","","null","null","n-back-trial","0","1","NT","","0","","","","","",""
"audio-keyboard-response","235","716293","0.0-1.0-1.6-1.214-0.214","651","letters/6.wav","","32","651","n-back-trial","1","1","T","1","","","","","","",""
"audio-keyboard-response","236","718812","0.0-1.0-1.6-1.215-0.215","null","letters/2.wav","","null","null","n-back-trial","0","1","NT","","0","","","","","",""
"audio-keyboard-response","237","721333","0.0-1.0-1.6-1.216-0.216","null","letters/8.wav","","null","null","n-back-trial","0","1","NT","","0","","","","","",""
"html-button-response","238","723078","0.0-1.0-1.6-2.6","1744","<p>You may take a short break if you wish.</p><p>Click the button below when you are ready to continue.</p>","0","","","","","","","","","","","","","",""
"html-button-response","239","726262","0.0-1.0-1.7-0.7","3183","<p>You will now complete a <strong>1-back.</strong></p><p>Remember, this means that you should press SPACEBAR every time the sound you hear matches the one presented <strong>1</strong> position(s) previously.</p>","0","","","","","","","","","","","","","",""
"audio-keyboard-response","240","728773","0.0-1.0-1.7-1.217-0.217","null","letters/4.wav","","null","null","n-back-trial","0","1","FIRSTS","","0","","","","","",""
"audio-keyboard-response","241","731293","0.0-1.0-1.7-1.218-0.218","null","letters/1.wav","","null","null","n-back-trial","0","1","NT","","0","","","","","",""
"audio-keyboard-response","242","733803","0.0-1.0-1.7-1.219-0.219","749","letters/1.wav","","32","749","n-back-trial","1","1","T","1","","","","","","",""
"audio-keyboard-response","243","736323","0.0-1.0-1.7-1.220-0.220","null","letters/7.wav","","null","null","n-back-trial","0","1","NT","","0","","","","","",""
"audio-keyboard-response","244","738844","0.0-1.0-1.7-1.221-0.221","null","letters/5.wav","","null","null","n-back-trial","0","1","NT","","0","","","","","",""
"audio-keyboard-response","245","741364","0.0-1.0-1.7-1.222-0.222","null","letters/1.wav","","null","null","n-back-trial","0","1","NT","","0","","","","","",""
"audio-keyboard-response","246","743884","0.0-1.0-1.7-1.223-0.223","629","letters/1.wav","","32","629","n-back-trial","1","1","T","1","","","","","","",""
"audio-keyboard-response","247","746404","0.0-1.0-1.7-1.224-0.224","541","letters/1.wav","","32","541","n-back-trial","1","1","T","1","","","","","","",""
"audio-keyboard-response","248","748914","0.0-1.0-1.7-1.225-0.225","null","letters/7.wav","","null","null","n-back-trial","0","1","NT","","0","","","","","",""
"audio-keyboard-response","249","751424","0.0-1.0-1.7-1.226-0.226","739","letters/7.wav","","32","739","n-back-trial","1","1","T","1","","","","","","",""
"audio-keyboard-response","250","753930","0.0-1.0-1.7-1.227-0.227","null","letters/3.wav","","null","null","n-back-trial","0","1","NT","","0","","","","","",""
"audio-keyboard-response","251","756435","0.0-1.0-1.7-1.228-0.228","null","letters/8.wav","","null","null","n-back-trial","0","1","NT","","0","","","","","",""
"audio-keyboard-response","252","758955","0.0-1.0-1.7-1.229-0.229","null","letters/2.wav","","null","null","n-back-trial","0","1","NT","","0","","","","","",""
"audio-keyboard-response","253","761465","0.0-1.0-1.7-1.230-0.230","512","letters/2.wav","","32","512","n-back-trial","1","1","T","1","","","","","","",""
"audio-keyboard-response","254","763985","0.0-1.0-1.7-1.231-0.231","648","letters/2.wav","","32","648","n-back-trial","1","1","T","1","","","","","","",""
"audio-keyboard-response","255","766495","0.0-1.0-1.7-1.232-0.232","null","letters/5.wav","","null","null","n-back-trial","0","1","NT","","0","","","","","",""
"audio-keyboard-response","256","769015","0.0-1.0-1.7-1.233-0.233","null","letters/7.wav","","null","null","n-back-trial","0","1","NT","","0","","","","","",""
"audio-keyboard-response","257","771536","0.0-1.0-1.7-1.234-0.234","891","letters/7.wav","","32","891","n-back-trial","1","1","T","1","","","","","","",""
"audio-keyboard-response","258","774056","0.0-1.0-1.7-1.235-0.235","null","letters/5.wav","","null","null","n-back-trial","0","1","NT","","0","","","","","",""
"audio-keyboard-response","259","776576","0.0-1.0-1.7-1.236-0.236","null","letters/6.wav","","null","null","n-back-trial","0","1","NT","","0","","","","","",""
"audio-keyboard-response","260","779086","0.0-1.0-1.7-1.237-0.237","null","letters/1.wav","","null","null","n-back-trial","0","1","NT","","0","","","","","",""
"audio-keyboard-response","261","781606","0.0-1.0-1.7-1.238-0.238","389","letters/1.wav","","32","389","n-back-trial","1","1","T","1","","","","","","",""
"audio-keyboard-response","262","784126","0.0-1.0-1.7-1.239-0.239","720","letters/1.wav","","32","720","n-back-trial","1","1","T","1","","","","","","",""
"audio-keyboard-response","263","786631","0.0-1.0-1.7-1.240-0.240","null","letters/5.wav","","null","null","n-back-trial","0","1","NT","","0","","","","","",""
"audio-keyboard-response","264","789146","0.0-1.0-1.7-1.241-0.241","null","letters/2.wav","","null","null","n-back-trial","0","1","NT","","0","","","","","",""
"audio-keyboard-response","265","791666","0.0-1.0-1.7-1.242-0.242","null","letters/4.wav","","null","null","n-back-trial","0","1","NT","","0","","","","","",""
"audio-keyboard-response","266","794186","0.0-1.0-1.7-1.243-0.243","null","letters/8.wav","","null","null","n-back-trial","0","1","NT","","0","","","","","",""
"audio-keyboard-response","267","796707","0.0-1.0-1.7-1.244-0.244","null","letters/6.wav","","null","null","n-back-trial","0","1","NT","","0","","","","","",""
"audio-keyboard-response","268","799217","0.0-1.0-1.7-1.245-0.245","760","letters/6.wav","","32","760","n-back-trial","1","1","T","1","","","","","","",""
"audio-keyboard-response","269","801727","0.0-1.0-1.7-1.246-0.246","null","letters/1.wav","","null","null","n-back-trial","0","1","NT","","0","","","","","",""
"audio-keyboard-response","270","804247","0.0-1.0-1.7-1.247-0.247","null","letters/3.wav","","null","null","n-back-trial","0","1","NT","","0","","","","","",""
"html-button-response","271","806166","0.0-1.0-1.7-2.7","1918","<p>You may take a short break if you wish.</p><p>Click the button below when you are ready to continue.</p>","0","","","","","","","","","","","","","",""
"html-button-response","272","808174","0.0-1.0-1.8-0.8","2007","<p>You will now complete a <strong>1-back.</strong></p><p>Remember, this means that you should press SPACEBAR every time the sound you hear matches the one presented <strong>1</strong> position(s) previously.</p>","0","","","","","","","","","","","","","",""
"audio-keyboard-response","273","810678","0.0-1.0-1.8-1.248-0.248","null","letters/4.wav","","null","null","n-back-trial","0","1","FIRSTS","","0","","","","","",""
"audio-keyboard-response","274","813188","0.0-1.0-1.8-1.249-0.249","null","letters/6.wav","","null","null","n-back-trial","0","1","NT","","0","","","","","",""
"audio-keyboard-response","275","815697","0.0-1.0-1.8-1.250-0.250","null","letters/4.wav","","null","null","n-back-trial","0","1","NT","","0","","","","","",""
"audio-keyboard-response","276","818218","0.0-1.0-1.8-1.251-0.251","null","letters/8.wav","","null","null","n-back-trial","0","1","NT","","0","","","","","",""
"audio-keyboard-response","277","820728","0.0-1.0-1.8-1.252-0.252","null","letters/7.wav","","null","null","n-back-trial","0","1","NT","","0","","","","","",""
"audio-keyboard-response","278","823238","0.0-1.0-1.8-1.253-0.253","null","letters/4.wav","","null","null","n-back-trial","0","1","NT","","0","","","","","",""
"audio-keyboard-response","279","825758","0.0-1.0-1.8-1.254-0.254","null","letters/2.wav","","null","null","n-back-trial","0","1","NT","","0","","","","","",""
"audio-keyboard-response","280","828278","0.0-1.0-1.8-1.255-0.255","null","letters/6.wav","","null","null","n-back-trial","0","1","NT","","0","","","","","",""
"audio-keyboard-response","281","830789","0.0-1.0-1.8-1.256-0.256","null","letters/2.wav","","null","null","n-back-trial","0","1","NT","","0","","","","","",""
"audio-keyboard-response","282","833309","0.0-1.0-1.8-1.257-0.257","null","letters/5.wav","","null","null","n-back-trial","0","1","NT","","0","","","","","",""
"audio-keyboard-response","283","835819","0.0-1.0-1.8-1.258-0.258","491","letters/5.wav","","32","491","n-back-trial","1","1","T","1","","","","","","",""
"audio-keyboard-response","284","838329","0.0-1.0-1.8-1.259-0.259","null","letters/4.wav","","null","null","n-back-trial","0","1","NT","","0","","","","","",""
"audio-keyboard-response","285","840849","0.0-1.0-1.8-1.260-0.260","null","letters/3.wav","","null","null","n-back-trial","0","1","NT","","0","","","","","",""
"audio-keyboard-response","286","843369","0.0-1.0-1.8-1.261-0.261","null","letters/7.wav","","null","null","n-back-trial","0","1","NT","","0","","","","","",""
"audio-keyboard-response","287","845890","0.0-1.0-1.8-1.262-0.262","null","letters/4.wav","","null","null","n-back-trial","0","1","NT","","0","","","","","",""
"audio-keyboard-response","288","848408","0.0-1.0-1.8-1.263-0.263","null","letters/5.wav","","null","null","n-back-trial","0","1","NT","","0","","","","","",""
"audio-keyboard-response","289","850909","0.0-1.0-1.8-1.264-0.264","2112","letters/5.wav","","32","2112","n-back-trial","1","1","T","1","","","","","","",""
"audio-keyboard-response","290","853430","0.0-1.0-1.8-1.265-0.265","null","letters/7.wav","","null","null","n-back-trial","0","1","NT","","0","","","","","",""
"audio-keyboard-response","291","855950","0.0-1.0-1.8-1.266-0.266","null","letters/2.wav","","null","null","n-back-trial","0","1","NT","","0","","","","","",""
"audio-keyboard-response","292","858470","0.0-1.0-1.8-1.267-0.267","null","letters/3.wav","","null","null","n-back-trial","0","1","NT","","0","","","","","",""
"audio-keyboard-response","293","860990","0.0-1.0-1.8-1.268-0.268","720","letters/3.wav","","32","720","n-back-trial","1","1","T","1","","","","","","",""
"audio-keyboard-response","294","863510","0.0-1.0-1.8-1.269-0.269","null","letters/4.wav","","null","null","n-back-trial","0","1","NT","","0","","","","","",""
"audio-keyboard-response","295","866030","0.0-1.0-1.8-1.270-0.270","null","letters/2.wav","","null","null","n-back-trial","0","1","NT","","0","","","","","",""
"audio-keyboard-response","296","868540","0.0-1.0-1.8-1.271-0.271","1771","letters/2.wav","","32","1771","n-back-trial","1","1","T","1","","","","","","",""
"audio-keyboard-response","297","871050","0.0-1.0-1.8-1.272-0.272","1091","letters/2.wav","","32","1091","n-back-trial","1","1","T","1","","","","","","",""
"audio-keyboard-response","298","873571","0.0-1.0-1.8-1.273-0.273","741","letters/2.wav","","32","741","n-back-trial","1","1","T","1","","","","","","",""
"audio-keyboard-response","299","876081","0.0-1.0-1.8-1.274-0.274","null","letters/5.wav","","null","null","n-back-trial","0","1","NT","","0","","","","","",""
"audio-keyboard-response","300","878601","0.0-1.0-1.8-1.275-0.275","421","letters/5.wav","","32","421","n-back-trial","1","1","T","1","","","","","","",""
"audio-keyboard-response","301","881121","0.0-1.0-1.8-1.276-0.276","549","letters/5.wav","","32","549","n-back-trial","1","1","T","1","","","","","","",""
"audio-keyboard-response","302","883631","0.0-1.0-1.8-1.277-0.277","528","letters/5.wav","","32","528","n-back-trial","1","1","T","1","","","","","","",""
"audio-keyboard-response","303","886152","0.0-1.0-1.8-1.278-0.278","400","letters/5.wav","","32","400","n-back-trial","1","1","T","1","","","","","","",""
"html-button-response","304","888710","0.0-1.0-1.8-2.8","2558","<p>You may take a short break if you wish.</p><p>Click the button below when you are ready to continue.</p>","0","","","","","","","","","","","","","",""
"html-button-response","305","889982","0.0-1.0-1.9-0.9","1270","<p>You will now complete a <strong>1-back.</strong></p><p>Remember, this means that you should press SPACEBAR every time the sound you hear matches the one presented <strong>1</strong> position(s) previously.</p>","0","","","","","","","","","","","","","",""
"audio-keyboard-response","306","892502","0.0-1.0-1.9-1.279-0.279","null","letters/1.wav","","null","null","n-back-trial","0","1","FIRSTS","","0","","","","","",""
"audio-keyboard-response","307","895022","0.0-1.0-1.9-1.280-0.280","null","letters/8.wav","","null","null","n-back-trial","0","1","NT","","0","","","","","",""
"audio-keyboard-response","308","897532","0.0-1.0-1.9-1.281-0.281","931","letters/8.wav","","32","931","n-back-trial","1","1","T","1","","","","","","",""
"audio-keyboard-response","309","900052","0.0-1.0-1.9-1.282-0.282","null","letters/7.wav","","null","null","n-back-trial","0","1","NT","","0","","","","","",""
"audio-keyboard-response","310","902562","0.0-1.0-1.9-1.283-0.283","672","letters/7.wav","","32","672","n-back-trial","1","1","T","1","","","","","","",""
"audio-keyboard-response","311","905082","0.0-1.0-1.9-1.284-0.284","821","letters/7.wav","","32","821","n-back-trial","1","1","T","1","","","","","","",""
"audio-keyboard-response","312","907592","0.0-1.0-1.9-1.285-0.285","null","letters/5.wav","","null","null","n-back-trial","0","1","NT","","0","","","","","",""
"audio-keyboard-response","313","910113","0.0-1.0-1.9-1.286-0.286","null","letters/7.wav","","null","null","n-back-trial","0","1","NT","","0","","","","","",""
"audio-keyboard-response","314","912633","0.0-1.0-1.9-1.287-0.287","899","letters/7.wav","","32","899","n-back-trial","1","1","T","1","","","","","","",""
"audio-keyboard-response","315","915143","0.0-1.0-1.9-1.288-0.288","939","letters/7.wav","","32","939","n-back-trial","1","1","T","1","","","","","","",""
"audio-keyboard-response","316","917663","0.0-1.0-1.9-1.289-0.289","null","letters/3.wav","","null","null","n-back-trial","0","1","NT","","0","","","","","",""
"audio-keyboard-response","317","920173","0.0-1.0-1.9-1.290-0.290","null","letters/7.wav","","null","null","n-back-trial","0","1","NT","","0","","","","","",""
"audio-keyboard-response","318","922693","0.0-1.0-1.9-1.291-0.291","null","letters/1.wav","","null","null","n-back-trial","0","1","NT","","0","","","","","",""
"audio-keyboard-response","319","925214","0.0-1.0-1.9-1.292-0.292","null","letters/6.wav","","null","null","n-back-trial","0","1","NT","","0","","","","","",""
"audio-keyboard-response","320","927733","0.0-1.0-1.9-1.293-0.293","null","letters/7.wav","","null","null","n-back-trial","0","1","NT","","0","","","","","",""
"audio-keyboard-response","321","930244","0.0-1.0-1.9-1.294-0.294","592","letters/7.wav","","32","592","n-back-trial","1","1","T","1","","","","","","",""
"audio-keyboard-response","322","932764","0.0-1.0-1.9-1.295-0.295","880","letters/7.wav","","32","880","n-back-trial","1","1","T","1","","","","","","",""
"audio-keyboard-response","323","935284","0.0-1.0-1.9-1.296-0.296","null","letters/5.wav","","null","null","n-back-trial","0","1","NT","","0","","","","","",""
"audio-keyboard-response","324","937804","0.0-1.0-1.9-1.297-0.297","null","letters/1.wav","","null","null","n-back-trial","0","1","NT","","0","","","","","",""
"audio-keyboard-response","325","940324","0.0-1.0-1.9-1.298-0.298","null","letters/5.wav","","null","null","n-back-trial","0","1","NT","","0","","","","","",""
"audio-keyboard-response","326","942844","0.0-1.0-1.9-1.299-0.299","null","letters/7.wav","","null","null","n-back-trial","0","1","NT","","0","","","","","",""
"audio-keyboard-response","327","945355","0.0-1.0-1.9-1.300-0.300","null","letters/6.wav","","null","null","n-back-trial","0","1","NT","","0","","","","","",""
"audio-keyboard-response","328","947875","0.0-1.0-1.9-1.301-0.301","null","letters/5.wav","","null","null","n-back-trial","0","1","NT","","0","","","","","",""
"audio-keyboard-response","329","950395","0.0-1.0-1.9-1.302-0.302","null","letters/1.wav","","null","null","n-back-trial","0","1","NT","","0","","","","","",""
"audio-keyboard-response","330","952902","0.0-1.0-1.9-1.303-0.303","848","letters/1.wav","","32","848","n-back-trial","1","1","T","1","","","","","","",""
"audio-keyboard-response","331","955425","0.0-1.0-1.9-1.304-0.304","null","letters/8.wav","","null","null","n-back-trial","0","1","NT","","0","","","","","",""
"audio-keyboard-response","332","957945","0.0-1.0-1.9-1.305-0.305","null","letters/3.wav","","null","null","n-back-trial","0","1","NT","","0","","","","","",""
"audio-keyboard-response","333","960465","0.0-1.0-1.9-1.306-0.306","859","letters/3.wav","","32","859","n-back-trial","1","1","T","1","","","","","","",""
"audio-keyboard-response","334","962986","0.0-1.0-1.9-1.307-0.307","749","letters/3.wav","","32","749","n-back-trial","1","1","T","1","","","","","","",""
"audio-keyboard-response","335","965496","0.0-1.0-1.9-1.308-0.308","null","letters/2.wav","","null","null","n-back-trial","0","1","NT","","0","","","","","",""
"audio-keyboard-response","336","968016","0.0-1.0-1.9-1.309-0.309","null","letters/5.wav","","null","null","n-back-trial","0","1","NT","","0","","","","","",""
"html-button-response","337","970390","0.0-1.0-1.9-2.9","2373","<p>You may take a short break if you wish.</p><p>Click the button below when you are ready to continue.</p>","0","","","","","","","","","","","","","",""
"html-button-response","338","971838","0.0-1.0-2.0","1447","<p>Thank you for your responses.</p><p>This concludes the auditory memory task.</p>","0","","","ANB-SUMMARY","","","","","","68","0","0","10","0","0"
