"trial_type","trial_index","time_elapsed","internal_node_id","subject","rt","stimulus","key_press","responses","word","answer"
"pavlovia","0","10","0.0-0.0","pbsmkiwh6en","","","","","",""
"html-keyboard-response","1","27202","0.0-1.0","pbsmkiwh6en","27189.299999952316","<p>Welcome to the experiment. In the first part of the study you will hear a series of words. Please listen carefully to each word.</p><p>(Press any key to continue.)</p>","13","","",""
"html-keyboard-response","2","35808","0.0-2.0","pbsmkiwh6en","8102.899999976158","<p>It is crucial that you pay attention to each word as you will be asked, after a short pause, to type the word that you heard. You will know when to begin typing when you see a text box on the screen. After typing the word that you heard, press Enter to proceed.</p><p>(Press any key to continue)</p>","13","","",""
"html-keyboard-response","3","40160","0.0-3.0","pbsmkiwh6en","3842.2999999523163","<p>You will need to listen carefully to each word as they are difficult to understand. For this reason, please be as attentive as possible to each word.</p><p>When you are ready, press any key to begin the experiment.</p>","13","","",""
"html-keyboard-response","4","42181","0.0-4.0","pbsmkiwh6en","null","<div id=""countdown"">***</div>","null","","",""
"audio-keyboard-response","5","42610","0.0-5.0","pbsmkiwh6en","null","perceptual_learning_stimuli/t1/r_book.wav","null","","",""
"survey-text","6","46002","0.0-6.0","pbsmkiwh6en","3375.9000000953674","","","{""Q0"":""book""}","book","book"
"html-keyboard-response","7","48521","0.0-7.0","pbsmkiwh6en","null","<div id=""countdown"">***</div>","null","","",""
"audio-keyboard-response","8","49070","0.0-8.0","pbsmkiwh6en","null","perceptual_learning_stimuli/t1/r_bluff.wav","null","","",""
"survey-text","9","55705","0.0-9.0","pbsmkiwh6en","6631.200000047684","","","{""Q0"":""blast""}","bluff","blast"
"html-keyboard-response","10","58216","0.0-10.0","pbsmkiwh6en","null","<div id=""countdown"">***</div>","null","","",""
"audio-keyboard-response","11","58620","0.0-11.0","pbsmkiwh6en","null","perceptual_learning_stimuli/t1/r_sped.wav","null","","",""
"survey-text","12","67840","0.0-12.0","pbsmkiwh6en","9216.799999952316","","","{""Q0"":""sped""}","sped","sped"
"html-keyboard-response","13","70345","0.0-13.0","pbsmkiwh6en","null","<div id=""countdown"">***</div>","null","","",""
"audio-keyboard-response","14","70790","0.0-14.0","pbsmkiwh6en","null","perceptual_learning_stimuli/t1/r_greet.wav","null","","",""
"survey-text","15","75776","0.0-15.0","pbsmkiwh6en","4982.200000047684","","","{""Q0"":""greed""}","greet","greed"
"html-keyboard-response","16","78302","0.0-16.0","pbsmkiwh6en","null","<div id=""countdown"">***</div>","null","","",""
"audio-keyboard-response","17","78721","0.0-17.0","pbsmkiwh6en","null","perceptual_learning_stimuli/t1/r_spot.wav","null","","",""
"survey-text","18","80592","0.0-18.0","pbsmkiwh6en","1867.6000000238419","","","{""Q0"":""start""}","spot","start"
"html-keyboard-response","19","83102","0.0-19.0","pbsmkiwh6en","null","<div id=""countdown"">***</div>","null","","",""
"audio-keyboard-response","20","83551","0.0-20.0","pbsmkiwh6en","null","perceptual_learning_stimuli/t1/r_spook.wav","null","","",""
"survey-text","21","86736","0.0-21.0","pbsmkiwh6en","3181.5","","","{""Q0"":""stick""}","spook","stick"
"html-keyboard-response","22","89244","0.0-22.0","pbsmkiwh6en","null","<div id=""countdown"">***</div>","null","","",""
"audio-keyboard-response","23","89501","0.0-23.0","pbsmkiwh6en","null","perceptual_learning_stimuli/t1/r_tuck.wav","null","","",""
"survey-text","24","96400","0.0-24.0","pbsmkiwh6en","6895.200000047684","","","{""Q0"":""tech""}","tuck","tech"
"html-keyboard-response","25","98926","0.0-25.0","pbsmkiwh6en","null","<div id=""countdown"">***</div>","null","","",""
"audio-keyboard-response","26","99232","0.0-26.0","pbsmkiwh6en","null","perceptual_learning_stimuli/t1/r_bat.wav","null","","",""
"survey-text","27","101720","0.0-27.0","pbsmkiwh6en","2484.600000023842","","","{""Q0"":""bat""}","bat","bat"
"html-keyboard-response","28","104237","0.0-28.0","pbsmkiwh6en","null","<div id=""countdown"">***</div>","null","","",""
"audio-keyboard-response","29","104592","0.0-29.0","pbsmkiwh6en","null","perceptual_learning_stimuli/t1/r_lunge.wav","null","","",""
"survey-text","30","119161","0.0-30.0","pbsmkiwh6en","14564.799999952316","","","{""Q0"":""lullaby""}","lunge","lullaby"
"html-keyboard-response","31","121675","0.0-31.0","pbsmkiwh6en","null","<div id=""countdown"">***</div>","null","","",""
"audio-keyboard-response","32","121994","0.0-32.0","pbsmkiwh6en","null","perceptual_learning_stimuli/t1/r_rich.wav","null","","",""
"survey-text","33","129056","0.0-33.0","pbsmkiwh6en","7059.100000023842","","","{""Q0"":""parade""}","rich","parade"
"html-keyboard-response","34","131566","0.0-34.0","pbsmkiwh6en","null","<div id=""countdown"">***</div>","null","","",""
"audio-keyboard-response","35","131924","0.0-35.0","pbsmkiwh6en","null","perceptual_learning_stimuli/t1/r_club.wav","null","","",""
"survey-text","36","133592","0.0-36.0","pbsmkiwh6en","1664.8999999761581","","","{""Q0"":""club""}","club","club"
"html-keyboard-response","37","136109","0.0-37.0","pbsmkiwh6en","null","<div id=""countdown"">***</div>","null","","",""
"audio-keyboard-response","38","136314","0.0-38.0","pbsmkiwh6en","null","perceptual_learning_stimuli/t1/r_ten.wav","null","","",""
"survey-text","39","143472","0.0-39.0","pbsmkiwh6en","7155.099999904633","","","{""Q0"":""cat""}","ten","cat"
"html-keyboard-response","40","145993","0.0-40.0","pbsmkiwh6en","null","<div id=""countdown"">***</div>","null","","",""
"audio-keyboard-response","41","146265","0.0-41.0","pbsmkiwh6en","null","perceptual_learning_stimuli/t1/r_nook.wav","null","","",""
"survey-text","42","148056","0.0-42.0","pbsmkiwh6en","1788.2000000476837","","","{""Q0"":""look""}","nook","look"
"html-keyboard-response","43","150580","0.0-43.0","pbsmkiwh6en","null","<div id=""countdown"">***</div>","null","","",""
"audio-keyboard-response","44","150895","0.0-44.0","pbsmkiwh6en","null","perceptual_learning_stimuli/t1/r_heap.wav","null","","",""
"survey-text","45","152592","0.0-45.0","pbsmkiwh6en","1693.8999999761581","","","{""Q0"":""feet""}","heap","feet"
"html-keyboard-response","46","155114","0.0-46.0","pbsmkiwh6en","null","<div id=""countdown"">***</div>","null","","",""
"audio-keyboard-response","47","155585","0.0-47.0","pbsmkiwh6en","null","perceptual_learning_stimuli/t1/r_six.wav","null","","",""
"survey-text","48","156856","0.0-48.0","pbsmkiwh6en","1267.8000000715256","","","{""Q0"":""six""}","six","six"
"html-keyboard-response","49","159371","0.0-49.0","pbsmkiwh6en","null","<div id=""countdown"">***</div>","null","","",""
"audio-keyboard-response","50","159635","0.0-50.0","pbsmkiwh6en","null","perceptual_learning_stimuli/t1/r_teach.wav","null","","",""
"survey-text","51","161088","0.0-51.0","pbsmkiwh6en","1449.8000000715256","","","{""Q0"":""teach""}","teach","teach"
"html-keyboard-response","52","163604","0.0-52.0","pbsmkiwh6en","null","<div id=""countdown"">***</div>","null","","",""
"audio-keyboard-response","53","163986","0.0-53.0","pbsmkiwh6en","null","perceptual_learning_stimuli/t1/r_crop.wav","null","","",""
"survey-text","54","169256","0.0-54.0","pbsmkiwh6en","5267.400000095367","","","{""Q0"":""trudge""}","crop","trudge"
"html-keyboard-response","55","171777","0.0-55.0","pbsmkiwh6en","null","<div id=""countdown"">***</div>","null","","",""
"audio-keyboard-response","56","172096","0.0-56.0","pbsmkiwh6en","null","perceptual_learning_stimuli/t1/r_rough.wav","null","","",""
"survey-text","57","173832","0.0-57.0","pbsmkiwh6en","1732.7000000476837","","","{""Q0"":""rough""}","rough","rough"
"html-keyboard-response","58","176347","0.0-58.0","pbsmkiwh6en","null","<div id=""countdown"">***</div>","null","","",""
"audio-keyboard-response","59","176816","0.0-59.0","pbsmkiwh6en","null","perceptual_learning_stimuli/t1/r_thread.wav","null","","",""
"survey-text","60","179959","0.0-60.0","pbsmkiwh6en","3140.5","","","{""Q0"":""thread""}","thread","thread"
"html-keyboard-response","61","182479","0.0-61.0","pbsmkiwh6en","null","<div id=""countdown"">***</div>","null","","",""
"audio-keyboard-response","62","182856","0.0-62.0","pbsmkiwh6en","null","perceptual_learning_stimuli/t1/r_last.wav","null","","",""
"survey-text","63","185479","0.0-63.0","pbsmkiwh6en","2620.399999976158","","","{""Q0"":""last""}","last","last"
"html-keyboard-response","64","187999","0.0-64.0","pbsmkiwh6en","null","<div id=""countdown"">***</div>","null","","",""
"audio-keyboard-response","65","188286","0.0-65.0","pbsmkiwh6en","null","perceptual_learning_stimuli/t1/r_weed.wav","null","","",""
"survey-text","66","189384","0.0-66.0","pbsmkiwh6en","1094.3000000715256","","","{""Q0"":""read""}","weed","read"
"html-keyboard-response","67","191894","0.0-67.0","pbsmkiwh6en","null","<div id=""countdown"">***</div>","null","","",""
"audio-keyboard-response","68","192366","0.0-68.0","pbsmkiwh6en","null","perceptual_learning_stimuli/t1/r_fraud.wav","null","","",""
"survey-text","69","194047","0.0-69.0","pbsmkiwh6en","1677.6000000238419","","","{""Q0"":""fraud""}","fraud","fraud"
"html-keyboard-response","70","196564","0.0-70.0","pbsmkiwh6en","null","<div id=""countdown"">***</div>","null","","",""
"audio-keyboard-response","71","196736","0.0-71.0","pbsmkiwh6en","null","perceptual_learning_stimuli/t1/r_eat.wav","null","","",""
"survey-text","72","197992","0.0-72.0","pbsmkiwh6en","1251.8999999761581","","","{""Q0"":""eat""}","eat","eat"
"html-keyboard-response","73","200512","0.0-73.0","pbsmkiwh6en","null","<div id=""countdown"">***</div>","null","","",""
"audio-keyboard-response","74","200957","0.0-74.0","pbsmkiwh6en","null","perceptual_learning_stimuli/t1/r_lost.wav","null","","",""
"survey-text","75","202767","0.0-75.0","pbsmkiwh6en","1806.8999999761581","","","{""Q0"":""closed""}","lost","closed"
"html-keyboard-response","76","205280","0.0-76.0","pbsmkiwh6en","null","<div id=""countdown"">***</div>","null","","",""
"audio-keyboard-response","77","205707","0.0-77.0","pbsmkiwh6en","null","perceptual_learning_stimuli/t1/r_jaunt.wav","null","","",""
"survey-text","78","211272","0.0-78.0","pbsmkiwh6en","5561.5","","","{""Q0"":""jolt""}","jaunt","jolt"
"html-keyboard-response","79","213797","0.0-79.0","pbsmkiwh6en","null","<div id=""countdown"">***</div>","null","","",""
"audio-keyboard-response","80","214317","0.0-80.0","pbsmkiwh6en","null","perceptual_learning_stimuli/t1/r_blotch.wav","null","","",""
"survey-text","81","219632","0.0-81.0","pbsmkiwh6en","5310.600000023842","","","{""Q0"":""blood""}","blotch","blood"
"html-keyboard-response","82","222155","0.0-82.0","pbsmkiwh6en","null","<div id=""countdown"">***</div>","null","","",""
"audio-keyboard-response","83","222538","0.0-83.0","pbsmkiwh6en","null","perceptual_learning_stimuli/t1/r_sauce.wav","null","","",""
"survey-text","84","224048","0.0-84.0","pbsmkiwh6en","1506.3999999761581","","","{""Q0"":""sauce""}","sauce","sauce"
"html-keyboard-response","85","226554","0.0-85.0","pbsmkiwh6en","null","<div id=""countdown"">***</div>","null","","",""
"audio-keyboard-response","86","226928","0.0-86.0","pbsmkiwh6en","null","perceptual_learning_stimuli/t1/r_list.wav","null","","",""
"survey-text","87","228399","0.0-87.0","pbsmkiwh6en","1467.6999999284744","","","{""Q0"":""list""}","list","list"
"html-keyboard-response","88","230911","0.0-88.0","pbsmkiwh6en","null","<div id=""countdown"">***</div>","null","","",""
"audio-keyboard-response","89","231258","0.0-89.0","pbsmkiwh6en","null","perceptual_learning_stimuli/t1/r_dude.wav","null","","",""
"survey-text","90","233408","0.0-90.0","pbsmkiwh6en","2145.899999976158","","","{""Q0"":""dude""}","dude","dude"
"html-keyboard-response","91","235918","0.0-91.0","pbsmkiwh6en","null","<div id=""countdown"">***</div>","null","","",""
"audio-keyboard-response","92","236319","0.0-92.0","pbsmkiwh6en","null","perceptual_learning_stimuli/t1/r_bleat.wav","null","","",""
"survey-text","93","237888","0.0-93.0","pbsmkiwh6en","1565.3999999761581","","","{""Q0"":""bleed""}","bleat","bleed"
"html-keyboard-response","94","240408","0.0-94.0","pbsmkiwh6en","null","<div id=""countdown"">***</div>","null","","",""
"audio-keyboard-response","95","240889","0.0-95.0","pbsmkiwh6en","null","perceptual_learning_stimuli/t1/r_grab.wav","null","","",""
"survey-text","96","242224","0.0-96.0","pbsmkiwh6en","1331.4000000953674","","","{""Q0"":""grab""}","grab","grab"
"html-keyboard-response","97","244730","0.0-97.0","pbsmkiwh6en","null","<div id=""countdown"">***</div>","null","","",""
"audio-keyboard-response","98","245059","0.0-98.0","pbsmkiwh6en","null","perceptual_learning_stimuli/t1/r_hock.wav","null","","",""
"survey-text","99","246920","0.0-99.0","pbsmkiwh6en","1857.2000000476837","","","{""Q0"":""touch""}","hock","touch"
"html-keyboard-response","100","249444","0.0-100.0","pbsmkiwh6en","null","<div id=""countdown"">***</div>","null","","",""
"audio-keyboard-response","101","249860","0.0-101.0","pbsmkiwh6en","null","perceptual_learning_stimuli/t1/r_bliss.wav","null","","",""
"survey-text","102","251344","0.0-102.0","pbsmkiwh6en","1480.5","","","{""Q0"":""bliss""}","bliss","bliss"
"html-keyboard-response","103","253863","0.0-103.0","pbsmkiwh6en","null","<div id=""countdown"">***</div>","null","","",""
"audio-keyboard-response","104","254240","0.0-104.0","pbsmkiwh6en","null","perceptual_learning_stimuli/t1/r_seek.wav","null","","",""
"survey-text","105","255392","0.0-105.0","pbsmkiwh6en","1148.5","","","{""Q0"":""seek""}","seek","seek"
"html-keyboard-response","106","257910","0.0-106.0","pbsmkiwh6en","null","<div id=""countdown"">***</div>","null","","",""
"audio-keyboard-response","107","258250","0.0-107.0","pbsmkiwh6en","null","perceptual_learning_stimuli/t1/r_treat.wav","null","","",""
"survey-text","108","269560","0.0-108.0","pbsmkiwh6en","11306.300000071526","","","{""Q0"":""three""}","treat","three"
"html-keyboard-response","109","272074","0.0-109.0","pbsmkiwh6en","null","<div id=""countdown"">***</div>","null","","",""
"audio-keyboard-response","110","272491","0.0-110.0","pbsmkiwh6en","null","perceptual_learning_stimuli/t1/r_sift.wav","null","","",""
"survey-text","111","275096","0.0-111.0","pbsmkiwh6en","2601.600000023842","","","{""Q0"":""sift""}","sift","sift"
"html-keyboard-response","112","277615","0.0-112.0","pbsmkiwh6en","null","<div id=""countdown"">***</div>","null","","",""
"audio-keyboard-response","113","277901","0.0-113.0","pbsmkiwh6en","null","perceptual_learning_stimuli/t1/r_wish.wav","null","","",""
"survey-text","114","280280","0.0-114.0","pbsmkiwh6en","2375.4000000953674","","","{""Q0"":""wish""}","wish","wish"
"html-keyboard-response","115","282802","0.0-115.0","pbsmkiwh6en","null","<div id=""countdown"">***</div>","null","","",""
"audio-keyboard-response","116","283201","0.0-116.0","pbsmkiwh6en","null","perceptual_learning_stimuli/t1/r_crawl.wav","null","","",""
"survey-text","117","285184","0.0-117.0","pbsmkiwh6en","1978.5","","","{""Q0"":""crawl""}","crawl","crawl"
"html-keyboard-response","118","287705","0.0-118.0","pbsmkiwh6en","null","<div id=""countdown"">***</div>","null","","",""
"audio-keyboard-response","119","287962","0.0-119.0","pbsmkiwh6en","null","perceptual_learning_stimuli/t1/r_peace.wav","null","","",""
"survey-text","120","289929","0.0-120.0","pbsmkiwh6en","1962.6000000238419","","","{""Q0"":""peace""}","peace","peace"
"html-keyboard-response","121","292450","0.0-121.0","pbsmkiwh6en","null","<div id=""countdown"">***</div>","null","","",""
"audio-keyboard-response","122","292832","0.0-122.0","pbsmkiwh6en","null","perceptual_learning_stimuli/t1/r_stem.wav","null","","",""
"survey-text","123","294560","0.0-123.0","pbsmkiwh6en","1724.7999999523163","","","{""Q0"":""step""}","stem","step"
"html-keyboard-response","124","297080","0.0-124.0","pbsmkiwh6en","null","<div id=""countdown"">***</div>","null","","",""
"audio-keyboard-response","125","297402","0.0-125.0","pbsmkiwh6en","null","perceptual_learning_stimuli/t1/r_rock.wav","null","","",""
"survey-text","126","299176","0.0-126.0","pbsmkiwh6en","1770.2000000476837","","","{""Q0"":""rock""}","rock","rock"
"html-keyboard-response","127","301696","0.0-127.0","pbsmkiwh6en","null","<div id=""countdown"">***</div>","null","","",""
"audio-keyboard-response","128","302132","0.0-128.0","pbsmkiwh6en","null","perceptual_learning_stimuli/t1/r_feast.wav","null","","",""
"survey-text","129","305192","0.0-129.0","pbsmkiwh6en","3056.0999999046326","","","{""Q0"":""cease""}","feast","cease"
"html-keyboard-response","130","307708","0.0-130.0","pbsmkiwh6en","null","<div id=""countdown"">***</div>","null","","",""
"audio-keyboard-response","131","307912","0.0-131.0","pbsmkiwh6en","null","perceptual_learning_stimuli/t1/r_pot.wav","null","","",""
"survey-text","132","311960","0.0-132.0","pbsmkiwh6en","4043.7000000476837","","","{""Q0"":""taught""}","pot","taught"
"html-keyboard-response","133","314478","0.0-133.0","pbsmkiwh6en","null","<div id=""countdown"">***</div>","null","","",""
"audio-keyboard-response","134","314803","0.0-134.0","pbsmkiwh6en","null","perceptual_learning_stimuli/t1/r_mooch.wav","null","","",""
"survey-text","135","319376","0.0-135.0","pbsmkiwh6en","4569.5","","","{""Q0"":""mooch""}","mooch","mooch"
"html-keyboard-response","136","321892","0.0-136.0","pbsmkiwh6en","null","<div id=""countdown"">***</div>","null","","",""
"audio-keyboard-response","137","322223","0.0-137.0","pbsmkiwh6en","null","perceptual_learning_stimuli/t1/r_reef.wav","null","","",""
"survey-text","138","325856","0.0-138.0","pbsmkiwh6en","3629.100000023842","","","{""Q0"":""grief""}","reef","grief"
"html-keyboard-response","139","328371","0.0-139.0","pbsmkiwh6en","null","<div id=""countdown"">***</div>","null","","",""
"audio-keyboard-response","140","328804","0.0-140.0","pbsmkiwh6en","null","perceptual_learning_stimuli/t1/r_stock.wav","null","","",""
"survey-text","141","330400","0.0-141.0","pbsmkiwh6en","1592.7000000476837","","","{""Q0"":""stuck""}","stock","stuck"
"html-keyboard-response","142","332909","0.0-142.0","pbsmkiwh6en","null","<div id=""countdown"">***</div>","null","","",""
"audio-keyboard-response","143","333244","0.0-143.0","pbsmkiwh6en","null","perceptual_learning_stimuli/t1/r_quip.wav","null","","",""
"survey-text","144","338743","0.0-144.0","pbsmkiwh6en","5496.5","","","{""Q0"":""trek""}","quip","trek"
"html-keyboard-response","145","341249","0.0-145.0","pbsmkiwh6en","null","<div id=""countdown"">***</div>","null","","",""
"audio-keyboard-response","146","341554","0.0-146.0","pbsmkiwh6en","null","perceptual_learning_stimuli/t1/r_leg.wav","null","","",""
"survey-text","147","342960","0.0-147.0","pbsmkiwh6en","1402.3000000715256","","","{""Q0"":""leg""}","leg","leg"
"html-keyboard-response","148","345482","0.0-148.0","pbsmkiwh6en","null","<div id=""countdown"">***</div>","null","","",""
"audio-keyboard-response","149","345804","0.0-149.0","pbsmkiwh6en","null","perceptual_learning_stimuli/t1/r_rack.wav","null","","",""
"survey-text","150","347495","0.0-150.0","pbsmkiwh6en","1688","","","{""Q0"":""rack""}","rack","rack"
"html-keyboard-response","151","350008","0.0-151.0","pbsmkiwh6en","null","<div id=""countdown"">***</div>","null","","",""
"audio-keyboard-response","152","350335","0.0-152.0","pbsmkiwh6en","null","perceptual_learning_stimuli/t1/r_give.wav","null","","",""
"survey-text","153","352696","0.0-153.0","pbsmkiwh6en","2357.9000000953674","","","{""Q0"":""gift""}","give","gift"
"html-keyboard-response","154","355203","0.0-154.0","pbsmkiwh6en","null","<div id=""countdown"">***</div>","null","","",""
"audio-keyboard-response","155","355635","0.0-155.0","pbsmkiwh6en","null","perceptual_learning_stimuli/t1/r_waft.wav","null","","",""
"survey-text","156","357456","0.0-156.0","pbsmkiwh6en","1817.5","","","{""Q0"":""waft""}","waft","waft"
"html-keyboard-response","157","359964","0.0-157.0","pbsmkiwh6en","null","<div id=""countdown"">***</div>","null","","",""
"audio-keyboard-response","158","360326","0.0-158.0","pbsmkiwh6en","null","perceptual_learning_stimuli/t1/r_bait.wav","null","","",""
"survey-text","159","361560","0.0-159.0","pbsmkiwh6en","1231.2999999523163","","","{""Q0"":""bite""}","bait","bite"
"html-keyboard-response","160","364085","0.0-160.0","pbsmkiwh6en","null","<div id=""countdown"">***</div>","null","","",""
"audio-keyboard-response","161","364406","0.0-161.0","pbsmkiwh6en","null","perceptual_learning_stimuli/t1/r_moose.wav","null","","",""
"survey-text","162","366112","0.0-162.0","pbsmkiwh6en","1703","","","{""Q0"":""boost""}","moose","boost"
"html-keyboard-response","163","368632","0.0-163.0","pbsmkiwh6en","null","<div id=""countdown"">***</div>","null","","",""
"audio-keyboard-response","164","369026","0.0-164.0","pbsmkiwh6en","null","perceptual_learning_stimuli/t1/r_dump.wav","null","","",""
"survey-text","165","370344","0.0-165.0","pbsmkiwh6en","1314.7000000476837","","","{""Q0"":""duck""}","dump","duck"
"html-keyboard-response","166","372856","0.0-166.0","pbsmkiwh6en","null","<div id=""countdown"">***</div>","null","","",""
"audio-keyboard-response","167","373166","0.0-167.0","pbsmkiwh6en","null","perceptual_learning_stimuli/t1/r_lawn.wav","null","","",""
"survey-text","168","378416","0.0-168.0","pbsmkiwh6en","5246.800000071526","","","{""Q0"":""loss""}","lawn","loss"
"html-keyboard-response","169","380941","0.0-169.0","pbsmkiwh6en","null","<div id=""countdown"">***</div>","null","","",""
"audio-keyboard-response","170","381367","0.0-170.0","pbsmkiwh6en","null","perceptual_learning_stimuli/t1/r_flock.wav","null","","",""
"survey-text","171","386072","0.0-171.0","pbsmkiwh6en","4702.299999952316","","","{""Q0"":""flood""}","flock","flood"
"html-keyboard-response","172","388581","0.0-172.0","pbsmkiwh6en","null","<div id=""countdown"">***</div>","null","","",""
"audio-keyboard-response","173","388907","0.0-173.0","pbsmkiwh6en","null","perceptual_learning_stimuli/t1/r_meek.wav","null","","",""
"survey-text","174","390384","0.0-174.0","pbsmkiwh6en","1473.8999999761581","","","{""Q0"":""leak""}","meek","leak"
"html-keyboard-response","175","392899","0.0-175.0","pbsmkiwh6en","null","<div id=""countdown"">***</div>","null","","",""
"audio-keyboard-response","176","393358","0.0-176.0","pbsmkiwh6en","null","perceptual_learning_stimuli/t1/r_speed.wav","null","","",""
"survey-text","177","394920","0.0-177.0","pbsmkiwh6en","1559.6000000238419","","","{""Q0"":""speed""}","speed","speed"
"html-keyboard-response","178","397431","0.0-178.0","pbsmkiwh6en","null","<div id=""countdown"">***</div>","null","","",""
"audio-keyboard-response","179","397918","0.0-179.0","pbsmkiwh6en","null","perceptual_learning_stimuli/t1/r_frock.wav","null","","",""
"survey-text","180","405760","0.0-180.0","pbsmkiwh6en","7839.5","","","{""Q0"":""frogged""}","frock","frogged"
"html-keyboard-response","181","408290","0.0-181.0","pbsmkiwh6en","null","<div id=""countdown"">***</div>","null","","",""
"audio-keyboard-response","182","408619","0.0-182.0","pbsmkiwh6en","null","perceptual_learning_stimuli/t1/r_good.wav","null","","",""
"survey-text","183","410280","0.0-183.0","pbsmkiwh6en","1658.2000000476837","","","{""Q0"":""good""}","good","good"
"html-keyboard-response","184","412795","0.0-184.0","pbsmkiwh6en","null","<div id=""countdown"">***</div>","null","","",""
"audio-keyboard-response","185","413199","0.0-185.0","pbsmkiwh6en","null","perceptual_learning_stimuli/t1/r_fume.wav","null","","",""
"survey-text","186","415640","0.0-186.0","pbsmkiwh6en","2438.399999976158","","","{""Q0"":""stew""}","fume","stew"
"html-keyboard-response","187","418162","0.0-187.0","pbsmkiwh6en","null","<div id=""countdown"">***</div>","null","","",""
"audio-keyboard-response","188","418729","0.0-188.0","pbsmkiwh6en","null","perceptual_learning_stimuli/t1/r_sketch.wav","null","","",""
"survey-text","189","420512","0.0-189.0","pbsmkiwh6en","1780.2000000476837","","","{""Q0"":""sketch""}","sketch","sketch"
"html-keyboard-response","190","423045","0.0-190.0","pbsmkiwh6en","null","<div id=""countdown"">***</div>","null","","",""
"audio-keyboard-response","191","423409","0.0-191.0","pbsmkiwh6en","null","perceptual_learning_stimuli/t1/r_flaw.wav","null","","",""
"survey-text","192","424792","0.0-192.0","pbsmkiwh6en","1380","","","{""Q0"":""flaw""}","flaw","flaw"
"html-keyboard-response","193","427301","0.0-193.0","pbsmkiwh6en","null","<div id=""countdown"">***</div>","null","","",""
"audio-keyboard-response","194","427610","0.0-194.0","pbsmkiwh6en","null","perceptual_learning_stimuli/t1/r_dash.wav","null","","",""
"survey-text","195","429865","0.0-195.0","pbsmkiwh6en","2251.7999999523163","","","{""Q0"":""dash""}","dash","dash"
"html-keyboard-response","196","432381","0.0-196.0","pbsmkiwh6en","null","<div id=""countdown"">***</div>","null","","",""
"audio-keyboard-response","197","432710","0.0-197.0","pbsmkiwh6en","null","perceptual_learning_stimuli/t1/r_beam.wav","null","","",""
"survey-text","198","439760","0.0-198.0","pbsmkiwh6en","7047.400000095367","","","{""Q0"":""demon""}","beam","demon"
"html-keyboard-response","199","442281","0.0-199.0","pbsmkiwh6en","null","<div id=""countdown"">***</div>","null","","",""
"audio-keyboard-response","200","442530","0.0-200.0","pbsmkiwh6en","null","perceptual_learning_stimuli/t1/r_cup.wav","null","","",""
"survey-text","201","444520","0.0-201.0","pbsmkiwh6en","1986.8000000715256","","","{""Q0"":""cut""}","cup","cut"
"html-keyboard-response","202","447041","0.0-202.0","pbsmkiwh6en","null","<div id=""countdown"">***</div>","null","","",""
"audio-keyboard-response","203","447511","0.0-203.0","pbsmkiwh6en","null","perceptual_learning_stimuli/t1/r_stag.wav","null","","",""
"survey-text","204","449904","0.0-204.0","pbsmkiwh6en","2390.399999976158","","","{""Q0"":""stag""}","stag","stag"
"html-keyboard-response","205","452424","0.0-205.0","pbsmkiwh6en","null","<div id=""countdown"">***</div>","null","","",""
"audio-keyboard-response","206","452721","0.0-206.0","pbsmkiwh6en","null","perceptual_learning_stimuli/t1/r_bet.wav","null","","",""
"survey-text","207","455800","0.0-207.0","pbsmkiwh6en","3076","","","{""Q0"":""bed""}","bet","bed"
"html-keyboard-response","208","458328","0.0-208.0","pbsmkiwh6en","null","<div id=""countdown"">***</div>","null","","",""
"audio-keyboard-response","209","458771","0.0-209.0","pbsmkiwh6en","null","perceptual_learning_stimuli/t1/r_rasp.wav","null","","",""
"survey-text","210","463489","0.0-210.0","pbsmkiwh6en","4714.099999904633","","","{""Q0"":""rasp""}","rasp","rasp"
"html-keyboard-response","211","466014","0.0-211.0","pbsmkiwh6en","null","<div id=""countdown"">***</div>","null","","",""
"audio-keyboard-response","212","466381","0.0-212.0","pbsmkiwh6en","null","perceptual_learning_stimuli/t1/r_fame.wav","null","","",""
"survey-text","213","467921","0.0-213.0","pbsmkiwh6en","1535.7999999523163","","","{""Q0"":""fight""}","fame","fight"
"html-keyboard-response","214","470437","0.0-214.0","pbsmkiwh6en","null","<div id=""countdown"">***</div>","null","","",""
"audio-keyboard-response","215","470752","0.0-215.0","pbsmkiwh6en","null","perceptual_learning_stimuli/t1/r_feet.wav","null","","",""
"survey-text","216","473104","0.0-216.0","pbsmkiwh6en","2349.399999976158","","","{""Q0"":""seed""}","feet","seed"
"html-keyboard-response","217","475623","0.0-217.0","pbsmkiwh6en","null","<div id=""countdown"">***</div>","null","","",""
"audio-keyboard-response","218","475962","0.0-218.0","pbsmkiwh6en","null","perceptual_learning_stimuli/t1/r_plume.wav","null","","",""
"survey-text","219","479536","0.0-219.0","pbsmkiwh6en","3571.100000023842","","","{""Q0"":""flake""}","plume","flake"
"html-keyboard-response","220","482052","0.0-220.0","pbsmkiwh6en","null","<div id=""countdown"">***</div>","null","","",""
"audio-keyboard-response","221","482292","0.0-221.0","pbsmkiwh6en","null","perceptual_learning_stimuli/t1/r_plea.wav","null","","",""
"survey-text","222","485160","0.0-222.0","pbsmkiwh6en","2864.8000000715256","","","{""Q0"":""bleak""}","plea","bleak"
"html-keyboard-response","223","487676","0.0-223.0","pbsmkiwh6en","null","<div id=""countdown"">***</div>","null","","",""
"audio-keyboard-response","224","487942","0.0-224.0","pbsmkiwh6en","null","perceptual_learning_stimuli/t1/r_lean.wav","null","","",""
"survey-text","225","490856","0.0-225.0","pbsmkiwh6en","2910.5999999046326","","","{""Q0"":""lead""}","lean","lead"
"html-keyboard-response","226","493381","0.0-226.0","pbsmkiwh6en","null","<div id=""countdown"">***</div>","null","","",""
"audio-keyboard-response","227","493712","0.0-227.0","pbsmkiwh6en","null","perceptual_learning_stimuli/t1/r_gun.wav","null","","",""
"survey-text","228","498640","0.0-228.0","pbsmkiwh6en","4924","","","{""Q0"":""guy""}","gun","guy"
"html-keyboard-response","229","501171","0.0-229.0","pbsmkiwh6en","null","<div id=""countdown"">***</div>","null","","",""
"audio-keyboard-response","230","501443","0.0-230.0","pbsmkiwh6en","null","perceptual_learning_stimuli/t1/r_hill.wav","null","","",""
"survey-text","231","503104","0.0-231.0","pbsmkiwh6en","1657.7000000476837","","","{""Q0"":""fill""}","hill","fill"
"html-keyboard-response","232","505612","0.0-232.0","pbsmkiwh6en","null","<div id=""countdown"">***</div>","null","","",""
"audio-keyboard-response","233","505933","0.0-233.0","pbsmkiwh6en","null","perceptual_learning_stimuli/t1/r_ship.wav","null","","",""
"survey-text","234","508320","0.0-234.0","pbsmkiwh6en","2383.1999999284744","","","{""Q0"":""ship""}","ship","ship"
"html-keyboard-response","235","510841","0.0-235.0","pbsmkiwh6en","null","<div id=""countdown"">***</div>","null","","",""
"audio-keyboard-response","236","511093","0.0-236.0","pbsmkiwh6en","null","perceptual_learning_stimuli/t1/r_kiss.wav","null","","",""
"survey-text","237","512552","0.0-237.0","pbsmkiwh6en","1455.2999999523163","","","{""Q0"":""kiss""}","kiss","kiss"
"html-keyboard-response","238","515073","0.0-238.0","pbsmkiwh6en","null","<div id=""countdown"">***</div>","null","","",""
"audio-keyboard-response","239","515354","0.0-239.0","pbsmkiwh6en","null","perceptual_learning_stimuli/t1/r_peek.wav","null","","",""
"survey-text","240","520272","0.0-240.0","pbsmkiwh6en","4914.399999976158","","","{""Q0"":""peak""}","peek","peak"
"html-keyboard-response","241","522790","0.0-241.0","pbsmkiwh6en","null","<div id=""countdown"">***</div>","null","","",""
"audio-keyboard-response","242","523064","0.0-242.0","pbsmkiwh6en","null","perceptual_learning_stimuli/t1/r_cheese.wav","null","","",""
"survey-text","243","525480","0.0-243.0","pbsmkiwh6en","2412.3000000715256","","","{""Q0"":""tease""}","cheese","tease"
"html-keyboard-response","244","528000","0.0-244.0","pbsmkiwh6en","null","<div id=""countdown"">***</div>","null","","",""
"audio-keyboard-response","245","528294","0.0-245.0","pbsmkiwh6en","null","perceptual_learning_stimuli/t1/r_deed.wav","null","","",""
"survey-text","246","530456","0.0-246.0","pbsmkiwh6en","2158.3000000715256","","","{""Q0"":""deed""}","deed","deed"
"html-keyboard-response","247","532971","0.0-247.0","pbsmkiwh6en","null","<div id=""countdown"">***</div>","null","","",""
"audio-keyboard-response","248","533344","0.0-248.0","pbsmkiwh6en","null","perceptual_learning_stimuli/t1/r_mist.wav","null","","",""
"survey-text","249","535168","0.0-249.0","pbsmkiwh6en","1820.2999999523163","","","{""Q0"":""list""}","mist","list"
"html-keyboard-response","250","537675","0.0-250.0","pbsmkiwh6en","null","<div id=""countdown"">***</div>","null","","",""
"audio-keyboard-response","251","538005","0.0-251.0","pbsmkiwh6en","null","perceptual_learning_stimuli/t1/r_nine.wav","null","","",""
"survey-text","252","540456","0.0-252.0","pbsmkiwh6en","2447.5999999046326","","","{""Q0"":""light""}","nine","light"
"html-keyboard-response","253","542983","0.0-253.0","pbsmkiwh6en","null","<div id=""countdown"">***</div>","null","","",""
"audio-keyboard-response","254","543255","0.0-254.0","pbsmkiwh6en","null","perceptual_learning_stimuli/t1/r_nap.wav","null","","",""
"survey-text","255","545872","0.0-255.0","pbsmkiwh6en","2613.6999999284744","","","{""Q0"":""mat""}","nap","mat"
"html-keyboard-response","256","548398","0.0-256.0","pbsmkiwh6en","null","<div id=""countdown"">***</div>","null","","",""
"audio-keyboard-response","257","548805","0.0-257.0","pbsmkiwh6en","null","perceptual_learning_stimuli/t1/r_dodge.wav","null","","",""
"survey-text","258","551312","0.0-258.0","pbsmkiwh6en","2503.1999999284744","","","{""Q0"":""dodge""}","dodge","dodge"
"html-keyboard-response","259","553828","0.0-259.0","pbsmkiwh6en","null","<div id=""countdown"">***</div>","null","","",""
"audio-keyboard-response","260","554275","0.0-260.0","pbsmkiwh6en","null","perceptual_learning_stimuli/t1/r_brook.wav","null","","",""
"survey-text","261","557056","0.0-261.0","pbsmkiwh6en","2776.8000000715256","","","{""Q0"":""broke""}","brook","broke"
"html-keyboard-response","262","559564","0.0-262.0","pbsmkiwh6en","null","<div id=""countdown"">***</div>","null","","",""
"audio-keyboard-response","263","559896","0.0-263.0","pbsmkiwh6en","null","perceptual_learning_stimuli/t1/r_bud.wav","null","","",""
"survey-text","264","561168","0.0-264.0","pbsmkiwh6en","1268.6000000238419","","","{""Q0"":""bud""}","bud","bud"
"html-keyboard-response","265","563697","0.0-265.0","pbsmkiwh6en","null","<div id=""countdown"">***</div>","null","","",""
"audio-keyboard-response","266","563946","0.0-266.0","pbsmkiwh6en","null","perceptual_learning_stimuli/t1/r_mat.wav","null","","",""
"survey-text","267","565896","0.0-267.0","pbsmkiwh6en","1946.8000000715256","","","{""Q0"":""mat""}","mat","mat"
"html-keyboard-response","268","568405","0.0-268.0","pbsmkiwh6en","null","<div id=""countdown"">***</div>","null","","",""
"audio-keyboard-response","269","568746","0.0-269.0","pbsmkiwh6en","null","perceptual_learning_stimuli/t1/r_gap.wav","null","","",""
"survey-text","270","571960","0.0-270.0","pbsmkiwh6en","3210.2999999523163","","","{""Q0"":""gasp""}","gap","gasp"
"html-keyboard-response","271","574478","0.0-271.0","pbsmkiwh6en","null","<div id=""countdown"">***</div>","null","","",""
"audio-keyboard-response","272","574876","0.0-272.0","pbsmkiwh6en","null","perceptual_learning_stimuli/t1/r_glue.wav","null","","",""
"survey-text","273","589928","0.0-273.0","pbsmkiwh6en","15048","","","{""Q0"":""gulp""}","glue","gulp"
"html-keyboard-response","274","592444","0.0-274.0","pbsmkiwh6en","null","<div id=""countdown"">***</div>","null","","",""
"audio-keyboard-response","275","592727","0.0-275.0","pbsmkiwh6en","null","perceptual_learning_stimuli/t1/r_clue.wav","null","","",""
"survey-text","276","628049","0.0-276.0","pbsmkiwh6en","35316.89999997616","","","{""Q0"":""cahoot""}","clue","cahoot"
"html-keyboard-response","277","630552","0.0-277.0","pbsmkiwh6en","null","<div id=""countdown"">***</div>","null","","",""
"audio-keyboard-response","278","630901","0.0-278.0","pbsmkiwh6en","null","perceptual_learning_stimuli/t1/r_neck.wav","null","","",""
"survey-text","279","632689","0.0-279.0","pbsmkiwh6en","1783.3000000715256","","","{""Q0"":""neck""}","neck","neck"
"html-keyboard-response","280","635196","0.0-280.0","pbsmkiwh6en","null","<div id=""countdown"">***</div>","null","","",""
"audio-keyboard-response","281","635561","0.0-281.0","pbsmkiwh6en","null","perceptual_learning_stimuli/t1/r_prune.wav","null","","",""
"survey-text","282","639201","0.0-282.0","pbsmkiwh6en","3635.4000000953674","","","{""Q0"":""termite""}","prune","termite"
"html-keyboard-response","283","641726","0.0-283.0","pbsmkiwh6en","null","<div id=""countdown"">***</div>","null","","",""
"audio-keyboard-response","284","642022","0.0-284.0","pbsmkiwh6en","null","perceptual_learning_stimuli/t1/r_noon.wav","null","","",""
"survey-text","285","644897","0.0-285.0","pbsmkiwh6en","2871.399999976158","","","{""Q0"":""hermit""}","noon","hermit"
"html-keyboard-response","286","647407","0.0-286.0","pbsmkiwh6en","null","<div id=""countdown"">***</div>","null","","",""
"audio-keyboard-response","287","647702","0.0-287.0","pbsmkiwh6en","null","perceptual_learning_stimuli/t1/r_web.wav","null","","",""
"survey-text","288","649217","0.0-288.0","pbsmkiwh6en","1510.5999999046326","","","{""Q0"":""red""}","web","red"
"html-keyboard-response","289","651723","0.0-289.0","pbsmkiwh6en","null","<div id=""countdown"">***</div>","null","","",""
"audio-keyboard-response","290","652083","0.0-290.0","pbsmkiwh6en","null","perceptual_learning_stimuli/t1/r_dig.wav","null","","",""
"survey-text","291","653424","0.0-291.0","pbsmkiwh6en","1338.2000000476837","","","{""Q0"":""dig""}","dig","dig"
"html-keyboard-response","292","655935","0.0-292.0","pbsmkiwh6en","null","<div id=""countdown"">***</div>","null","","",""
"audio-keyboard-response","293","656343","0.0-293.0","pbsmkiwh6en","null","perceptual_learning_stimuli/t1/r_creek.wav","null","","",""
"survey-text","294","660736","0.0-294.0","pbsmkiwh6en","4390.599999904633","","","{""Q0"":""greed""}","creek","greed"
"html-keyboard-response","295","663247","0.0-295.0","pbsmkiwh6en","null","<div id=""countdown"">***</div>","null","","",""
"audio-keyboard-response","296","663633","0.0-296.0","pbsmkiwh6en","null","perceptual_learning_stimuli/t1/r_clog.wav","null","","",""
"survey-text","297","665744","0.0-297.0","pbsmkiwh6en","2108.399999976158","","","{""Q0"":""flood""}","clog","flood"
"html-keyboard-response","298","668255","0.0-298.0","pbsmkiwh6en","null","<div id=""countdown"">***</div>","null","","",""
"audio-keyboard-response","299","668593","0.0-299.0","pbsmkiwh6en","null","perceptual_learning_stimuli/t1/r_chant.wav","null","","",""
"survey-text","300","670208","0.0-300.0","pbsmkiwh6en","1612.1000000238419","","","{""Q0"":""chant""}","chant","chant"
"html-keyboard-response","301","672725","0.0-301.0","pbsmkiwh6en","null","<div id=""countdown"">***</div>","null","","",""
"audio-keyboard-response","302","673113","0.0-302.0","pbsmkiwh6en","null","perceptual_learning_stimuli/t1/r_slot.wav","null","","",""
"survey-text","303","676096","0.0-303.0","pbsmkiwh6en","2979.7000000476837","","","{""Q0"":""flood""}","slot","flood"
"html-keyboard-response","304","682744","0.0-304.0","pbsmkiwh6en","5631.200000047684","In the next block you will receive feedback after you have typed in the word that you heard. Please make sure to note if there is a difference between what you typed and what the word really is.","13","","",""
"html-keyboard-response","305","684755","0.0-305.0","pbsmkiwh6en","null","<div id=""countdown"">***</div>","null","","",""
"audio-keyboard-response","306","685064","0.0-306.0","pbsmkiwh6en","null","perceptual_learning_stimuli/f1/r_plod.wav","null","","",""
"survey-text","307","686696","0.0-307.0","pbsmkiwh6en","1629.1999999284744","","","{""Q0"":""flood""}","plod","flood"
"html-keyboard-response","308","688705","0.0-308.0","pbsmkiwh6en","null","plod","null","","",""
"audio-keyboard-response","309","690461","0.0-309.0","pbsmkiwh6en","null","","null","","",""
"html-keyboard-response","310","692479","0.0-310.0","pbsmkiwh6en","null","<div id=""countdown"">***</div>","null","","",""
"audio-keyboard-response","311","692724","0.0-311.0","pbsmkiwh6en","null","perceptual_learning_stimuli/f1/r_who.wav","null","","",""
"survey-text","312","695328","0.0-312.0","pbsmkiwh6en","2600.7999999523163","","","{""Q0"":""hoop""}","who","hoop"
"html-keyboard-response","313","697344","0.0-313.0","pbsmkiwh6en","null","who","null","","",""
"audio-keyboard-response","314","699107","0.0-314.0","pbsmkiwh6en","null","","null","","",""
"html-keyboard-response","315","701119","0.0-315.0","pbsmkiwh6en","null","<div id=""countdown"">***</div>","null","","",""
"audio-keyboard-response","316","701605","0.0-316.0","pbsmkiwh6en","null","perceptual_learning_stimuli/f1/r_speak.wav","null","","",""
"survey-text","317","703608","0.0-317.0","pbsmkiwh6en","2000.0999999046326","","","{""Q0"":""speak""}","speak","speak"
"html-keyboard-response","318","705616","0.0-318.0","pbsmkiwh6en","null","speak","null","","",""
"audio-keyboard-response","319","707381","0.0-319.0","pbsmkiwh6en","null","","null","","",""
"html-keyboard-response","320","709406","0.0-320.0","pbsmkiwh6en","null","<div id=""countdown"">***</div>","null","","",""
"audio-keyboard-response","321","709795","0.0-321.0","pbsmkiwh6en","null","perceptual_learning_stimuli/f1/r_chest.wav","null","","",""
"survey-text","322","711088","0.0-322.0","pbsmkiwh6en","1289.6000000238419","","","{""Q0"":""chest""}","chest","chest"
"html-keyboard-response","323","713107","0.0-323.0","pbsmkiwh6en","null","chest","null","","",""
"audio-keyboard-response","324","714871","0.0-324.0","pbsmkiwh6en","null","","null","","",""
"html-keyboard-response","325","716894","0.0-325.0","pbsmkiwh6en","null","<div id=""countdown"">***</div>","null","","",""
"audio-keyboard-response","326","717216","0.0-326.0","pbsmkiwh6en","null","perceptual_learning_stimuli/f1/r_dock.wav","null","","",""
"survey-text","327","718600","0.0-327.0","pbsmkiwh6en","1381.3999999761581","","","{""Q0"":""duck""}","dock","duck"
"html-keyboard-response","328","720616","0.0-328.0","pbsmkiwh6en","null","dock","null","","",""
"audio-keyboard-response","329","722380","0.0-329.0","pbsmkiwh6en","null","","null","","",""
"html-keyboard-response","330","724402","0.0-330.0","pbsmkiwh6en","null","<div id=""countdown"">***</div>","null","","",""
"audio-keyboard-response","331","724696","0.0-331.0","pbsmkiwh6en","null","perceptual_learning_stimuli/f1/r_mock.wav","null","","",""
"survey-text","332","727104","0.0-332.0","pbsmkiwh6en","2405","","","{""Q0"":""neck""}","mock","neck"
"html-keyboard-response","333","729124","0.0-333.0","pbsmkiwh6en","null","mock","null","","",""
"audio-keyboard-response","334","730884","0.0-334.0","pbsmkiwh6en","null","","null","","",""
"html-keyboard-response","335","732896","0.0-335.0","pbsmkiwh6en","null","<div id=""countdown"">***</div>","null","","",""
"audio-keyboard-response","336","733206","0.0-336.0","pbsmkiwh6en","null","perceptual_learning_stimuli/f1/r_cure.wav","null","","",""
"survey-text","337","734464","0.0-337.0","pbsmkiwh6en","1254.2999999523163","","","{""Q0"":""pure""}","cure","pure"
"html-keyboard-response","338","736475","0.0-338.0","pbsmkiwh6en","null","cure","null","","",""
"audio-keyboard-response","339","738240","0.0-339.0","pbsmkiwh6en","null","","null","","",""
"html-keyboard-response","340","740263","0.0-340.0","pbsmkiwh6en","null","<div id=""countdown"">***</div>","null","","",""
"audio-keyboard-response","341","740557","0.0-341.0","pbsmkiwh6en","null","perceptual_learning_stimuli/f1/r_check.wav","null","","",""
"survey-text","342","744664","0.0-342.0","pbsmkiwh6en","4104.299999952316","","","{""Q0"":""check""}","check","check"
"html-keyboard-response","343","746687","0.0-343.0","pbsmkiwh6en","null","check","null","","",""
"audio-keyboard-response","344","748450","0.0-344.0","pbsmkiwh6en","null","","null","","",""
"html-keyboard-response","345","750477","0.0-345.0","pbsmkiwh6en","null","<div id=""countdown"">***</div>","null","","",""
"audio-keyboard-response","346","750717","0.0-346.0","pbsmkiwh6en","null","perceptual_learning_stimuli/f1/r_took.wav","null","","",""
"survey-text","347","754856","0.0-347.0","pbsmkiwh6en","4135.799999952316","","","{""Q0"":""dig""}","took","dig"
"html-keyboard-response","348","756882","0.0-348.0","pbsmkiwh6en","null","took","null","","",""
"audio-keyboard-response","349","758649","0.0-349.0","pbsmkiwh6en","null","","null","","",""
"html-keyboard-response","350","760677","0.0-350.0","pbsmkiwh6en","null","<div id=""countdown"">***</div>","null","","",""
"audio-keyboard-response","351","760968","0.0-351.0","pbsmkiwh6en","null","perceptual_learning_stimuli/f1/r_claw.wav","null","","",""
"survey-text","352","763112","0.0-352.0","pbsmkiwh6en","2141.100000023842","","","{""Q0"":""claw""}","claw","claw"
"html-keyboard-response","353","765132","0.0-353.0","pbsmkiwh6en","null","claw","null","","",""
"audio-keyboard-response","354","766892","0.0-354.0","pbsmkiwh6en","null","","null","","",""
"html-keyboard-response","355","768918","0.0-355.0","pbsmkiwh6en","null","<div id=""countdown"">***</div>","null","","",""
"audio-keyboard-response","356","769448","0.0-356.0","pbsmkiwh6en","null","perceptual_learning_stimuli/f1/r_street.wav","null","","",""
"survey-text","357","771056","0.0-357.0","pbsmkiwh6en","1604.6000000238419","","","{""Q0"":""street""}","street","street"
"html-keyboard-response","358","773067","0.0-358.0","pbsmkiwh6en","null","street","null","","",""
"audio-keyboard-response","359","774831","0.0-359.0","pbsmkiwh6en","null","","null","","",""
"html-keyboard-response","360","776857","0.0-360.0","pbsmkiwh6en","null","<div id=""countdown"">***</div>","null","","",""
"audio-keyboard-response","361","777119","0.0-361.0","pbsmkiwh6en","null","perceptual_learning_stimuli/f1/r_chill.wav","null","","",""
"survey-text","362","780529","0.0-362.0","pbsmkiwh6en","3406.2999999523163","","","{""Q0"":""chip""}","chill","chip"
"html-keyboard-response","363","782545","0.0-363.0","pbsmkiwh6en","null","chill","null","","",""
"audio-keyboard-response","364","784313","0.0-364.0","pbsmkiwh6en","null","","null","","",""
"html-keyboard-response","365","786340","0.0-365.0","pbsmkiwh6en","null","<div id=""countdown"">***</div>","null","","",""
"audio-keyboard-response","366","786660","0.0-366.0","pbsmkiwh6en","null","perceptual_learning_stimuli/f1/r_clot.wav","null","","",""
"survey-text","367","788929","0.0-367.0","pbsmkiwh6en","2265.7999999523163","","","{""Q0"":""plod""}","clot","plod"
"html-keyboard-response","368","790941","0.0-368.0","pbsmkiwh6en","null","clot","null","","",""
"audio-keyboard-response","369","792708","0.0-369.0","pbsmkiwh6en","null","","null","","",""
"html-keyboard-response","370","794723","0.0-370.0","pbsmkiwh6en","null","<div id=""countdown"">***</div>","null","","",""
"audio-keyboard-response","371","795110","0.0-371.0","pbsmkiwh6en","null","perceptual_learning_stimuli/f1/r_least.wav","null","","",""
"survey-text","372","796505","0.0-372.0","pbsmkiwh6en","1391.1999999284744","","","{""Q0"":""list""}","least","list"
"html-keyboard-response","373","798524","0.0-373.0","pbsmkiwh6en","null","least","null","","",""
"audio-keyboard-response","374","800289","0.0-374.0","pbsmkiwh6en","null","","null","","",""
"html-keyboard-response","375","802314","0.0-375.0","pbsmkiwh6en","null","<div id=""countdown"">***</div>","null","","",""
"audio-keyboard-response","376","802720","0.0-376.0","pbsmkiwh6en","null","perceptual_learning_stimuli/f1/r_brew.wav","null","","",""
"survey-text","377","808808","0.0-377.0","pbsmkiwh6en","6084.899999976158","","","{""Q0"":""burrow""}","brew","burrow"
"html-keyboard-response","378","810823","0.0-378.0","pbsmkiwh6en","null","brew","null","","",""
"audio-keyboard-response","379","812587","0.0-379.0","pbsmkiwh6en","null","","null","","",""
"html-keyboard-response","380","814604","0.0-380.0","pbsmkiwh6en","null","<div id=""countdown"">***</div>","null","","",""
"audio-keyboard-response","381","814891","0.0-381.0","pbsmkiwh6en","null","perceptual_learning_stimuli/f1/r_nip.wav","null","","",""
"survey-text","382","818241","0.0-382.0","pbsmkiwh6en","3346.2999999523163","","","{""Q0"":""knit""}","nip","knit"
"html-keyboard-response","383","820260","0.0-383.0","pbsmkiwh6en","null","nip","null","","",""
"audio-keyboard-response","384","822025","0.0-384.0","pbsmkiwh6en","null","","null","","",""
"html-keyboard-response","385","824040","0.0-385.0","pbsmkiwh6en","null","<div id=""countdown"">***</div>","null","","",""
"audio-keyboard-response","386","824382","0.0-386.0","pbsmkiwh6en","null","perceptual_learning_stimuli/f1/r_fish.wav","null","","",""
"survey-text","387","826169","0.0-387.0","pbsmkiwh6en","1784.1000000238419","","","{""Q0"":""fish""}","fish","fish"
"html-keyboard-response","388","828181","0.0-388.0","pbsmkiwh6en","null","fish","null","","",""
"audio-keyboard-response","389","829934","0.0-389.0","pbsmkiwh6en","null","","null","","",""
"html-keyboard-response","390","831947","0.0-390.0","pbsmkiwh6en","null","<div id=""countdown"">***</div>","null","","",""
"audio-keyboard-response","391","832182","0.0-391.0","pbsmkiwh6en","null","perceptual_learning_stimuli/f1/r_new.wav","null","","",""
"survey-text","392","833873","0.0-392.0","pbsmkiwh6en","1687.3999999761581","","","{""Q0"":""loop""}","new","loop"
"html-keyboard-response","393","835887","0.0-393.0","pbsmkiwh6en","null","new","null","","",""
"audio-keyboard-response","394","837644","0.0-394.0","pbsmkiwh6en","null","","null","","",""
"html-keyboard-response","395","839658","0.0-395.0","pbsmkiwh6en","null","<div id=""countdown"">***</div>","null","","",""
"audio-keyboard-response","396","839962","0.0-396.0","pbsmkiwh6en","null","perceptual_learning_stimuli/f1/r_myth.wav","null","","",""
"survey-text","397","846896","0.0-397.0","pbsmkiwh6en","6931","","","{""Q0"":""miss""}","myth","miss"
"html-keyboard-response","398","848912","0.0-398.0","pbsmkiwh6en","null","myth","null","","",""
"audio-keyboard-response","399","850675","0.0-399.0","pbsmkiwh6en","null","","null","","",""
"html-keyboard-response","400","852685","0.0-400.0","pbsmkiwh6en","null","<div id=""countdown"">***</div>","null","","",""
"audio-keyboard-response","401","853023","0.0-401.0","pbsmkiwh6en","null","perceptual_learning_stimuli/f1/r_loss.wav","null","","",""
"survey-text","402","854808","0.0-402.0","pbsmkiwh6en","1781.7999999523163","","","{""Q0"":""loss""}","loss","loss"
"html-keyboard-response","403","856827","0.0-403.0","pbsmkiwh6en","null","loss","null","","",""
"audio-keyboard-response","404","858595","0.0-404.0","pbsmkiwh6en","null","","null","","",""
"html-keyboard-response","405","860612","0.0-405.0","pbsmkiwh6en","null","<div id=""countdown"">***</div>","null","","",""
"audio-keyboard-response","406","860943","0.0-406.0","pbsmkiwh6en","null","perceptual_learning_stimuli/f1/r_rick.wav","null","","",""
"survey-text","407","862712","0.0-407.0","pbsmkiwh6en","1765.7999999523163","","","{""Q0"":""rake""}","rick","rake"
"html-keyboard-response","408","864725","0.0-408.0","pbsmkiwh6en","null","rick","null","","",""
"audio-keyboard-response","409","866492","0.0-409.0","pbsmkiwh6en","null","","null","","",""
"html-keyboard-response","410","868510","0.0-410.0","pbsmkiwh6en","null","<div id=""countdown"">***</div>","null","","",""
"audio-keyboard-response","411","868993","0.0-411.0","pbsmkiwh6en","null","perceptual_learning_stimuli/f1/r_shrug.wav","null","","",""
"survey-text","412","870872","0.0-412.0","pbsmkiwh6en","1875.2999999523163","","","{""Q0"":""shrug""}","shrug","shrug"
"html-keyboard-response","413","872881","0.0-413.0","pbsmkiwh6en","null","shrug","null","","",""
"audio-keyboard-response","414","874649","0.0-414.0","pbsmkiwh6en","null","","null","","",""
"html-keyboard-response","415","876665","0.0-415.0","pbsmkiwh6en","null","<div id=""countdown"">***</div>","null","","",""
"audio-keyboard-response","416","877013","0.0-416.0","pbsmkiwh6en","null","perceptual_learning_stimuli/f1/r_hoop.wav","null","","",""
"survey-text","417","880224","0.0-417.0","pbsmkiwh6en","3207.600000023842","","","{""Q0"":""hoot""}","hoop","hoot"
"html-keyboard-response","418","882235","0.0-418.0","pbsmkiwh6en","null","hoop","null","","",""
"audio-keyboard-response","419","883996","0.0-419.0","pbsmkiwh6en","null","","null","","",""
"html-keyboard-response","420","886015","0.0-420.0","pbsmkiwh6en","null","<div id=""countdown"">***</div>","null","","",""
"audio-keyboard-response","421","886334","0.0-421.0","pbsmkiwh6en","null","perceptual_learning_stimuli/f1/r_shed.wav","null","","",""
"survey-text","422","887664","0.0-422.0","pbsmkiwh6en","1326.2999999523163","","","{""Q0"":""shed""}","shed","shed"
"html-keyboard-response","423","889680","0.0-423.0","pbsmkiwh6en","null","shed","null","","",""
"audio-keyboard-response","424","891441","0.0-424.0","pbsmkiwh6en","null","","null","","",""
"html-keyboard-response","425","893460","0.0-425.0","pbsmkiwh6en","null","<div id=""countdown"">***</div>","null","","",""
"audio-keyboard-response","426","893944","0.0-426.0","pbsmkiwh6en","null","perceptual_learning_stimuli/f1/r_grease.wav","null","","",""
"survey-text","427","896928","0.0-427.0","pbsmkiwh6en","2980","","","{""Q0"":""grease""}","grease","grease"
"html-keyboard-response","428","898938","0.0-428.0","pbsmkiwh6en","null","grease","null","","",""
"audio-keyboard-response","429","900705","0.0-429.0","pbsmkiwh6en","null","","null","","",""
"html-keyboard-response","430","902729","0.0-430.0","pbsmkiwh6en","null","<div id=""countdown"">***</div>","null","","",""
"audio-keyboard-response","431","902986","0.0-431.0","pbsmkiwh6en","null","perceptual_learning_stimuli/f1/r_tune.wav","null","","",""
"survey-text","432","906001","0.0-432.0","pbsmkiwh6en","3011.600000023842","","","{""Q0"":""flip""}","tune","flip"
"html-keyboard-response","433","908011","0.0-433.0","pbsmkiwh6en","null","tune","null","","",""
"audio-keyboard-response","434","909775","0.0-434.0","pbsmkiwh6en","null","","null","","",""
"html-keyboard-response","435","911784","0.0-435.0","pbsmkiwh6en","null","<div id=""countdown"">***</div>","null","","",""
"audio-keyboard-response","436","912116","0.0-436.0","pbsmkiwh6en","null","perceptual_learning_stimuli/f1/r_room.wav","null","","",""
"survey-text","437","913921","0.0-437.0","pbsmkiwh6en","1800.8999999761581","","","{""Q0"":""army""}","room","army"
"html-keyboard-response","438","915932","0.0-438.0","pbsmkiwh6en","null","room","null","","",""
"audio-keyboard-response","439","917688","0.0-439.0","pbsmkiwh6en","null","","null","","",""
"html-keyboard-response","440","919701","0.0-440.0","pbsmkiwh6en","null","<div id=""countdown"">***</div>","null","","",""
"audio-keyboard-response","441","920247","0.0-441.0","pbsmkiwh6en","null","perceptual_learning_stimuli/f1/r_forth.wav","null","","",""
"survey-text","442","923397","0.0-442.0","pbsmkiwh6en","3146.600000023842","","","{""Q0"":""force""}","forth","force"
"html-keyboard-response","443","925417","0.0-443.0","pbsmkiwh6en","null","forth","null","","",""
"audio-keyboard-response","444","927174","0.0-444.0","pbsmkiwh6en","null","","null","","",""
"html-keyboard-response","445","929197","0.0-445.0","pbsmkiwh6en","null","<div id=""countdown"">***</div>","null","","",""
"audio-keyboard-response","446","929527","0.0-446.0","pbsmkiwh6en","null","perceptual_learning_stimuli/f1/r_reach.wav","null","","",""
"survey-text","447","931681","0.0-447.0","pbsmkiwh6en","2150.4000000953674","","","{""Q0"":""reach""}","reach","reach"
"html-keyboard-response","448","933703","0.0-448.0","pbsmkiwh6en","null","reach","null","","",""
"audio-keyboard-response","449","935463","0.0-449.0","pbsmkiwh6en","null","","null","","",""
"html-keyboard-response","450","937490","0.0-450.0","pbsmkiwh6en","null","<div id=""countdown"">***</div>","null","","",""
"audio-keyboard-response","451","937807","0.0-451.0","pbsmkiwh6en","null","perceptual_learning_stimuli/f1/r_deal.wav","null","","",""
"survey-text","452","939673","0.0-452.0","pbsmkiwh6en","1861.5999999046326","","","{""Q0"":""deal""}","deal","deal"
"html-keyboard-response","453","941688","0.0-453.0","pbsmkiwh6en","null","deal","null","","",""
"audio-keyboard-response","454","943445","0.0-454.0","pbsmkiwh6en","null","","null","","",""
"html-keyboard-response","455","945464","0.0-455.0","pbsmkiwh6en","null","<div id=""countdown"">***</div>","null","","",""
"audio-keyboard-response","456","945908","0.0-456.0","pbsmkiwh6en","null","perceptual_learning_stimuli/f1/r_snoop.wav","null","","",""
"survey-text","457","949593","0.0-457.0","pbsmkiwh6en","3681.100000023842","","","{""Q0"":""sleuth""}","snoop","sleuth"
"html-keyboard-response","458","951614","0.0-458.0","pbsmkiwh6en","null","snoop","null","","",""
"audio-keyboard-response","459","953377","0.0-459.0","pbsmkiwh6en","null","","null","","",""
"html-keyboard-response","460","955403","0.0-460.0","pbsmkiwh6en","null","<div id=""countdown"">***</div>","null","","",""
"audio-keyboard-response","461","955699","0.0-461.0","pbsmkiwh6en","null","perceptual_learning_stimuli/f1/r_pure.wav","null","","",""
"survey-text","462","958025","0.0-462.0","pbsmkiwh6en","2322.6999999284744","","","{""Q0"":""cure""}","pure","cure"
"html-keyboard-response","463","960043","0.0-463.0","pbsmkiwh6en","null","pure","null","","",""
"audio-keyboard-response","464","961804","0.0-464.0","pbsmkiwh6en","null","","null","","",""
"html-keyboard-response","465","963827","0.0-465.0","pbsmkiwh6en","null","<div id=""countdown"">***</div>","null","","",""
"audio-keyboard-response","466","964278","0.0-466.0","pbsmkiwh6en","null","perceptual_learning_stimuli/f1/r_crest.wav","null","","",""
"survey-text","467","970752","0.0-467.0","pbsmkiwh6en","6470.199999928474","","","{""Q0"":""rest""}","crest","rest"
"html-keyboard-response","468","972772","0.0-468.0","pbsmkiwh6en","null","crest","null","","",""
"audio-keyboard-response","469","974540","0.0-469.0","pbsmkiwh6en","null","","null","","",""
"html-keyboard-response","470","976556","0.0-470.0","pbsmkiwh6en","null","<div id=""countdown"">***</div>","null","","",""
"audio-keyboard-response","471","976829","0.0-471.0","pbsmkiwh6en","null","perceptual_learning_stimuli/f1/r_cheat.wav","null","","",""
"survey-text","472","978328","0.0-472.0","pbsmkiwh6en","1495.6000000238419","","","{""Q0"":""feet""}","cheat","feet"
"html-keyboard-response","473","980341","0.0-473.0","pbsmkiwh6en","null","cheat","null","","",""
"audio-keyboard-response","474","982105","0.0-474.0","pbsmkiwh6en","null","","null","","",""
"html-keyboard-response","475","984133","0.0-475.0","pbsmkiwh6en","null","<div id=""countdown"">***</div>","null","","",""
"audio-keyboard-response","476","984479","0.0-476.0","pbsmkiwh6en","null","perceptual_learning_stimuli/f1/r_bead.wav","null","","",""
"survey-text","477","986536","0.0-477.0","pbsmkiwh6en","2053.100000023842","","","{""Q0"":""deed""}","bead","deed"
"html-keyboard-response","478","988553","0.0-478.0","pbsmkiwh6en","null","bead","null","","",""
"audio-keyboard-response","479","990320","0.0-479.0","pbsmkiwh6en","null","","null","","",""
"html-keyboard-response","480","992325","0.0-480.0","pbsmkiwh6en","null","<div id=""countdown"">***</div>","null","","",""
"audio-keyboard-response","481","992599","0.0-481.0","pbsmkiwh6en","null","perceptual_learning_stimuli/f1/r_cub.wav","null","","",""
"survey-text","482","996376","0.0-482.0","pbsmkiwh6en","3773","","","{""Q0"":""cut""}","cub","cut"
"html-keyboard-response","483","998386","0.0-483.0","pbsmkiwh6en","null","cub","null","","",""
"audio-keyboard-response","484","1000147","0.0-484.0","pbsmkiwh6en","null","","null","","",""
"html-keyboard-response","485","1002161","0.0-485.0","pbsmkiwh6en","null","<div id=""countdown"">***</div>","null","","",""
"audio-keyboard-response","486","1002480","0.0-486.0","pbsmkiwh6en","null","perceptual_learning_stimuli/f1/r_punch.wav","null","","",""
"survey-text","487","1005424","0.0-487.0","pbsmkiwh6en","2940.100000023842","","","{""Q0"":""punch""}","punch","punch"
"html-keyboard-response","488","1007439","0.0-488.0","pbsmkiwh6en","null","punch","null","","",""
"audio-keyboard-response","489","1009206","0.0-489.0","pbsmkiwh6en","null","","null","","",""
"html-keyboard-response","490","1011222","0.0-490.0","pbsmkiwh6en","null","<div id=""countdown"">***</div>","null","","",""
"audio-keyboard-response","491","1011551","0.0-491.0","pbsmkiwh6en","null","perceptual_learning_stimuli/f1/r_test.wav","null","","",""
"survey-text","492","1014024","0.0-492.0","pbsmkiwh6en","2469.9000000953674","","","{""Q0"":""chest""}","test","chest"
"html-keyboard-response","493","1016039","0.0-493.0","pbsmkiwh6en","null","test","null","","",""
"audio-keyboard-response","494","1017797","0.0-494.0","pbsmkiwh6en","null","","null","","",""
"html-keyboard-response","495","1019812","0.0-495.0","pbsmkiwh6en","null","<div id=""countdown"">***</div>","null","","",""
"audio-keyboard-response","496","1020141","0.0-496.0","pbsmkiwh6en","null","perceptual_learning_stimuli/f1/r_calm.wav","null","","",""
"survey-text","497","1023456","0.0-497.0","pbsmkiwh6en","3311","","","{""Q0"":""tight""}","calm","tight"
"html-keyboard-response","498","1025469","0.0-498.0","pbsmkiwh6en","null","calm","null","","",""
"audio-keyboard-response","499","1027228","0.0-499.0","pbsmkiwh6en","null","","null","","",""
"html-keyboard-response","500","1029239","0.0-500.0","pbsmkiwh6en","null","<div id=""countdown"">***</div>","null","","",""
"audio-keyboard-response","501","1029541","0.0-501.0","pbsmkiwh6en","null","perceptual_learning_stimuli/f1/r_bit.wav","null","","",""
"survey-text","502","1033936","0.0-502.0","pbsmkiwh6en","4390.799999952316","","","{""Q0"":""gift""}","bit","gift"
"html-keyboard-response","503","1035949","0.0-503.0","pbsmkiwh6en","null","bit","null","","",""
"audio-keyboard-response","504","1037715","0.0-504.0","pbsmkiwh6en","null","","null","","",""
"html-keyboard-response","505","1039733","0.0-505.0","pbsmkiwh6en","null","<div id=""countdown"">***</div>","null","","",""
"audio-keyboard-response","506","1040192","0.0-506.0","pbsmkiwh6en","null","perceptual_learning_stimuli/f1/r_spool.wav","null","","",""
"survey-text","507","1042152","0.0-507.0","pbsmkiwh6en","1956.1000000238419","","","{""Q0"":""split""}","spool","split"
"html-keyboard-response","508","1044178","0.0-508.0","pbsmkiwh6en","null","spool","null","","",""
"audio-keyboard-response","509","1045946","0.0-509.0","pbsmkiwh6en","null","","null","","",""
"html-keyboard-response","510","1047960","0.0-510.0","pbsmkiwh6en","null","<div id=""countdown"">***</div>","null","","",""
"audio-keyboard-response","511","1048343","0.0-511.0","pbsmkiwh6en","null","perceptual_learning_stimuli/f1/r_troop.wav","null","","",""
"survey-text","512","1052400","0.0-512.0","pbsmkiwh6en","4053.7000000476837","","","{""Q0"":""truth""}","troop","truth"
"html-keyboard-response","513","1054417","0.0-513.0","pbsmkiwh6en","null","troop","null","","",""
"audio-keyboard-response","514","1056173","0.0-514.0","pbsmkiwh6en","null","","null","","",""
"html-keyboard-response","515","1058185","0.0-515.0","pbsmkiwh6en","null","<div id=""countdown"">***</div>","null","","",""
"audio-keyboard-response","516","1058683","0.0-516.0","pbsmkiwh6en","null","perceptual_learning_stimuli/f1/r_blessed.wav","null","","",""
"survey-text","517","1062056","0.0-517.0","pbsmkiwh6en","3369.8000000715256","","","{""Q0"":""blessed""}","blessed","blessed"
"html-keyboard-response","518","1064071","0.0-518.0","pbsmkiwh6en","null","blessed","null","","",""
"audio-keyboard-response","519","1065826","0.0-519.0","pbsmkiwh6en","null","","null","","",""
"html-keyboard-response","520","1067842","0.0-520.0","pbsmkiwh6en","null","<div id=""countdown"">***</div>","null","","",""
"audio-keyboard-response","521","1068273","0.0-521.0","pbsmkiwh6en","null","perceptual_learning_stimuli/f1/r_launch.wav","null","","",""
"survey-text","522","1074912","0.0-522.0","pbsmkiwh6en","6635.200000047684","","","{""Q0"":""launch""}","launch","launch"
"html-keyboard-response","523","1076932","0.0-523.0","pbsmkiwh6en","null","launch","null","","",""
"audio-keyboard-response","524","1078701","0.0-524.0","pbsmkiwh6en","null","","null","","",""
"html-keyboard-response","525","1080728","0.0-525.0","pbsmkiwh6en","null","<div id=""countdown"">***</div>","null","","",""
"audio-keyboard-response","526","1081124","0.0-526.0","pbsmkiwh6en","null","perceptual_learning_stimuli/f1/r_hedge.wav","null","","",""
"survey-text","527","1082617","0.0-527.0","pbsmkiwh6en","1488.6000000238419","","","{""Q0"":""hedge""}","hedge","hedge"
"html-keyboard-response","528","1084632","0.0-528.0","pbsmkiwh6en","null","hedge","null","","",""
"audio-keyboard-response","529","1086391","0.0-529.0","pbsmkiwh6en","null","","null","","",""
"html-keyboard-response","530","1088415","0.0-530.0","pbsmkiwh6en","null","<div id=""countdown"">***</div>","null","","",""
"audio-keyboard-response","531","1088715","0.0-531.0","pbsmkiwh6en","null","perceptual_learning_stimuli/f1/r_choose.wav","null","","",""
"survey-text","532","1091840","0.0-532.0","pbsmkiwh6en","3121.6999999284744","","","{""Q0"":""choose""}","choose","choose"
"html-keyboard-response","533","1093862","0.0-533.0","pbsmkiwh6en","null","choose","null","","",""
"audio-keyboard-response","534","1095622","0.0-534.0","pbsmkiwh6en","null","","null","","",""
"html-keyboard-response","535","1097643","0.0-535.0","pbsmkiwh6en","null","<div id=""countdown"">***</div>","null","","",""
"audio-keyboard-response","536","1097876","0.0-536.0","pbsmkiwh6en","null","perceptual_learning_stimuli/f1/r_top.wav","null","","",""
"survey-text","537","1101185","0.0-537.0","pbsmkiwh6en","3305.7000000476837","","","{""Q0"":""top""}","top","top"
"html-keyboard-response","538","1103192","0.0-538.0","pbsmkiwh6en","null","top","null","","",""
"audio-keyboard-response","539","1104946","0.0-539.0","pbsmkiwh6en","null","","null","","",""
"html-keyboard-response","540","1106955","0.0-540.0","pbsmkiwh6en","null","<div id=""countdown"">***</div>","null","","",""
"audio-keyboard-response","541","1107216","0.0-541.0","pbsmkiwh6en","null","perceptual_learning_stimuli/f1/r_tall.wav","null","","",""
"survey-text","542","1111521","0.0-542.0","pbsmkiwh6en","4300.899999976158","","","{""Q0"":""call""}","tall","call"
"html-keyboard-response","543","1113540","0.0-543.0","pbsmkiwh6en","null","tall","null","","",""
"audio-keyboard-response","544","1115308","0.0-544.0","pbsmkiwh6en","null","","null","","",""
"html-keyboard-response","545","1117321","0.0-545.0","pbsmkiwh6en","null","<div id=""countdown"">***</div>","null","","",""
"audio-keyboard-response","546","1117677","0.0-546.0","pbsmkiwh6en","null","perceptual_learning_stimuli/f1/r_lept.wav","null","","",""
"survey-text","547","1119481","0.0-547.0","pbsmkiwh6en","1800.2999999523163","","","{""Q0"":""leapt""}","lept","leapt"
"html-keyboard-response","548","1121502","0.0-548.0","pbsmkiwh6en","null","lept","null","","",""
"audio-keyboard-response","549","1123259","0.0-549.0","pbsmkiwh6en","null","","null","","",""
"html-keyboard-response","550","1125281","0.0-550.0","pbsmkiwh6en","null","<div id=""countdown"">***</div>","null","","",""
"audio-keyboard-response","551","1125577","0.0-551.0","pbsmkiwh6en","null","perceptual_learning_stimuli/f1/r_bomb.wav","null","","",""
"survey-text","552","1129785","0.0-552.0","pbsmkiwh6en","4203.899999976158","","","{""Q0"":""dust""}","bomb","dust"
"html-keyboard-response","553","1131813","0.0-553.0","pbsmkiwh6en","null","bomb","null","","",""
"audio-keyboard-response","554","1133570","0.0-554.0","pbsmkiwh6en","null","","null","","",""
"html-keyboard-response","555","1147144","0.0-555.0","pbsmkiwh6en","13059.200000047684","The next block will be similar to the last block as again you will receive feedback after you have typed in the word that you have heard. Please make sure to note if there is a difference between what you typed and what the word really is.","13","","",""
"html-keyboard-response","556","1149164","0.0-556.0","pbsmkiwh6en","null","<div id=""countdown"">***</div>","null","","",""
"audio-keyboard-response","557","1149508","0.0-557.0","pbsmkiwh6en","null","perceptual_learning_stimuli/f2/r_perk.wav","null","","",""
"survey-text","558","1151584","0.0-558.0","pbsmkiwh6en","2072.8000000715256","","","{""Q0"":""pack""}","perk","pack"
"html-keyboard-response","559","1153602","0.0-559.0","pbsmkiwh6en","null","perk","null","","",""
"audio-keyboard-response","560","1155364","0.0-560.0","pbsmkiwh6en","null","","null","","",""
"html-keyboard-response","561","1157391","0.0-561.0","pbsmkiwh6en","null","<div id=""countdown"">***</div>","null","","",""
"audio-keyboard-response","562","1157688","0.0-562.0","pbsmkiwh6en","null","perceptual_learning_stimuli/f2/r_heat.wav","null","","",""
"survey-text","563","1159624","0.0-563.0","pbsmkiwh6en","1932.2000000476837","","","{""Q0"":""feet""}","heat","feet"
"html-keyboard-response","564","1161641","0.0-564.0","pbsmkiwh6en","null","heat","null","","",""
"audio-keyboard-response","565","1163396","0.0-565.0","pbsmkiwh6en","null","","null","","",""
"html-keyboard-response","566","1165409","0.0-566.0","pbsmkiwh6en","null","<div id=""countdown"">***</div>","null","","",""
"audio-keyboard-response","567","1165849","0.0-567.0","pbsmkiwh6en","null","perceptual_learning_stimuli/f2/r_grit.wav","null","","",""
"survey-text","568","1170136","0.0-568.0","pbsmkiwh6en","4282.5","","","{""Q0"":""greed""}","grit","greed"
"html-keyboard-response","569","1172151","0.0-569.0","pbsmkiwh6en","null","grit","null","","",""
"audio-keyboard-response","570","1173918","0.0-570.0","pbsmkiwh6en","null","","null","","",""
"html-keyboard-response","571","1175936","0.0-571.0","pbsmkiwh6en","null","<div id=""countdown"">***</div>","null","","",""
"audio-keyboard-response","572","1176309","0.0-572.0","pbsmkiwh6en","null","perceptual_learning_stimuli/f2/r_bolt.wav","null","","",""
"survey-text","573","1180248","0.0-573.0","pbsmkiwh6en","3935.2000000476837","","","{""Q0"":""bolt""}","bolt","bolt"
"html-keyboard-response","574","1182257","0.0-574.0","pbsmkiwh6en","null","bolt","null","","",""
"audio-keyboard-response","575","1184023","0.0-575.0","pbsmkiwh6en","null","","null","","",""
"html-keyboard-response","576","1186038","0.0-576.0","pbsmkiwh6en","null","<div id=""countdown"">***</div>","null","","",""
"audio-keyboard-response","577","1186360","0.0-577.0","pbsmkiwh6en","null","perceptual_learning_stimuli/f2/r_pest.wav","null","","",""
"survey-text","578","1187992","0.0-578.0","pbsmkiwh6en","1628.6000000238419","","","{""Q0"":""test""}","pest","test"
"html-keyboard-response","579","1190018","0.0-579.0","pbsmkiwh6en","null","pest","null","","",""
"audio-keyboard-response","580","1191781","0.0-580.0","pbsmkiwh6en","null","","null","","",""
"html-keyboard-response","581","1193809","0.0-581.0","pbsmkiwh6en","null","<div id=""countdown"">***</div>","null","","",""
"audio-keyboard-response","582","1194090","0.0-582.0","pbsmkiwh6en","null","perceptual_learning_stimuli/f2/r_ray.wav","null","","",""
"survey-text","583","1197080","0.0-583.0","pbsmkiwh6en","2986.399999976158","","","{""Q0"":""write""}","ray","write"
"html-keyboard-response","584","1199104","0.0-584.0","pbsmkiwh6en","null","ray","null","","",""
"audio-keyboard-response","585","1200869","0.0-585.0","pbsmkiwh6en","null","","null","","",""
"html-keyboard-response","586","1202882","0.0-586.0","pbsmkiwh6en","null","<div id=""countdown"">***</div>","null","","",""
"audio-keyboard-response","587","1203341","0.0-587.0","pbsmkiwh6en","null","perceptual_learning_stimuli/f2/r_slog.wav","null","","",""
"survey-text","588","1205568","0.0-588.0","pbsmkiwh6en","2223.7999999523163","","","{""Q0"":""slug""}","slog","slug"
"html-keyboard-response","589","1207580","0.0-589.0","pbsmkiwh6en","null","slog","null","","",""
"audio-keyboard-response","590","1209346","0.0-590.0","pbsmkiwh6en","null","","null","","",""
"html-keyboard-response","591","1211371","0.0-591.0","pbsmkiwh6en","null","<div id=""countdown"">***</div>","null","","",""
"audio-keyboard-response","592","1211661","0.0-592.0","pbsmkiwh6en","null","perceptual_learning_stimuli/f2/r_inch.wav","null","","",""
"survey-text","593","1213304","0.0-593.0","pbsmkiwh6en","1639.7000000476837","","","{""Q0"":""inch""}","inch","inch"
"html-keyboard-response","594","1215321","0.0-594.0","pbsmkiwh6en","null","inch","null","","",""
"audio-keyboard-response","595","1217081","0.0-595.0","pbsmkiwh6en","null","","null","","",""
"html-keyboard-response","596","1219109","0.0-596.0","pbsmkiwh6en","null","<div id=""countdown"">***</div>","null","","",""
"audio-keyboard-response","597","1219501","0.0-597.0","pbsmkiwh6en","null","perceptual_learning_stimuli/f2/r_goof.wav","null","","",""
"survey-text","598","1221904","0.0-598.0","pbsmkiwh6en","2399.2000000476837","","","{""Q0"":""goosse""}","goof","goosse"
"html-keyboard-response","599","1223935","0.0-599.0","pbsmkiwh6en","null","goof","null","","",""
"audio-keyboard-response","600","1225694","0.0-600.0","pbsmkiwh6en","null","","null","","",""
"html-keyboard-response","601","1227722","0.0-601.0","pbsmkiwh6en","null","<div id=""countdown"">***</div>","null","","",""
"audio-keyboard-response","602","1228042","0.0-602.0","pbsmkiwh6en","null","perceptual_learning_stimuli/f2/r_get.wav","null","","",""
"survey-text","603","1229912","0.0-603.0","pbsmkiwh6en","1866.6000000238419","","","{""Q0"":""get""}","get","get"
"html-keyboard-response","604","1231921","0.0-604.0","pbsmkiwh6en","null","get","null","","",""
"audio-keyboard-response","605","1233684","0.0-605.0","pbsmkiwh6en","null","","null","","",""
"html-keyboard-response","606","1235710","0.0-606.0","pbsmkiwh6en","null","<div id=""countdown"">***</div>","null","","",""
"audio-keyboard-response","607","1236102","0.0-607.0","pbsmkiwh6en","null","perceptual_learning_stimuli/f2/r_wrist.wav","null","","",""
"survey-text","608","1238352","0.0-608.0","pbsmkiwh6en","2246.2000000476837","","","{""Q0"":""risk""}","wrist","risk"
"html-keyboard-response","609","1240369","0.0-609.0","pbsmkiwh6en","null","wrist","null","","",""
"audio-keyboard-response","610","1242135","0.0-610.0","pbsmkiwh6en","null","","null","","",""
"html-keyboard-response","611","1244164","0.0-611.0","pbsmkiwh6en","null","<div id=""countdown"">***</div>","null","","",""
"audio-keyboard-response","612","1244433","0.0-612.0","pbsmkiwh6en","null","perceptual_learning_stimuli/f2/r_mess.wav","null","","",""
"survey-text","613","1246608","0.0-613.0","pbsmkiwh6en","2171.5","","","{""Q0"":""nest""}","mess","nest"
"html-keyboard-response","614","1248628","0.0-614.0","pbsmkiwh6en","null","mess","null","","",""
"audio-keyboard-response","615","1250385","0.0-615.0","pbsmkiwh6en","null","","null","","",""
"html-keyboard-response","616","1252402","0.0-616.0","pbsmkiwh6en","null","<div id=""countdown"">***</div>","null","","",""
"audio-keyboard-response","617","1252723","0.0-617.0","pbsmkiwh6en","null","perceptual_learning_stimuli/f2/r_pinch.wav","null","","",""
"survey-text","618","1257320","0.0-618.0","pbsmkiwh6en","4591.299999952316","","","{""Q0"":""hinge""}","pinch","hinge"
"html-keyboard-response","619","1259337","0.0-619.0","pbsmkiwh6en","null","pinch","null","","",""
"audio-keyboard-response","620","1261106","0.0-620.0","pbsmkiwh6en","null","","null","","",""
"html-keyboard-response","621","1263125","0.0-621.0","pbsmkiwh6en","null","<div id=""countdown"">***</div>","null","","",""
"audio-keyboard-response","622","1263554","0.0-622.0","pbsmkiwh6en","null","perceptual_learning_stimuli/f2/r_free1.wav","null","","",""
"survey-text","623","1265560","0.0-623.0","pbsmkiwh6en","2003","","","{""Q0"":""freeze""}","free1","freeze"
"html-keyboard-response","624","1267568","0.0-624.0","pbsmkiwh6en","null","free1","null","","",""
"audio-keyboard-response","625","1269335","0.0-625.0","pbsmkiwh6en","null","","null","","",""
"html-keyboard-response","626","1271359","0.0-626.0","pbsmkiwh6en","null","<div id=""countdown"">***</div>","null","","",""
"audio-keyboard-response","627","1271634","0.0-627.0","pbsmkiwh6en","null","perceptual_learning_stimuli/f2/r_mean.wav","null","","",""
"survey-text","628","1275240","0.0-628.0","pbsmkiwh6en","3602.100000023842","","","{""Q0"":""milk""}","mean","milk"
"html-keyboard-response","629","1277249","0.0-629.0","pbsmkiwh6en","null","mean","null","","",""
"audio-keyboard-response","630","1279012","0.0-630.0","pbsmkiwh6en","null","","null","","",""
"html-keyboard-response","631","1281040","0.0-631.0","pbsmkiwh6en","null","<div id=""countdown"">***</div>","null","","",""
"audio-keyboard-response","632","1281385","0.0-632.0","pbsmkiwh6en","null","perceptual_learning_stimuli/f2/r_cease.wav","null","","",""
"survey-text","633","1283280","0.0-633.0","pbsmkiwh6en","1891.8999999761581","","","{""Q0"":""cease""}","cease","cease"
"html-keyboard-response","634","1285299","0.0-634.0","pbsmkiwh6en","null","cease","null","","",""
"audio-keyboard-response","635","1287060","0.0-635.0","pbsmkiwh6en","null","","null","","",""
"html-keyboard-response","636","1289070","0.0-636.0","pbsmkiwh6en","null","<div id=""countdown"">***</div>","null","","",""
"audio-keyboard-response","637","1289435","0.0-637.0","pbsmkiwh6en","null","perceptual_learning_stimuli/f2/r_nest.wav","null","","",""
"survey-text","638","1292018","0.0-638.0","pbsmkiwh6en","2579.1999999284744","","","{""Q0"":""nest""}","nest","nest"
"html-keyboard-response","639","1294044","0.0-639.0","pbsmkiwh6en","null","nest","null","","",""
"audio-keyboard-response","640","1295798","0.0-640.0","pbsmkiwh6en","null","","null","","",""
"html-keyboard-response","641","1297818","0.0-641.0","pbsmkiwh6en","null","<div id=""countdown"">***</div>","null","","",""
"audio-keyboard-response","642","1298276","0.0-642.0","pbsmkiwh6en","null","perceptual_learning_stimuli/f2/r_scare.wav","null","","",""
"survey-text","643","1300336","0.0-643.0","pbsmkiwh6en","2057","","","{""Q0"":""scare""}","scare","scare"
"html-keyboard-response","644","1302353","0.0-644.0","pbsmkiwh6en","null","scare","null","","",""
"audio-keyboard-response","645","1304110","0.0-645.0","pbsmkiwh6en","null","","null","","",""
"html-keyboard-response","646","1306127","0.0-646.0","pbsmkiwh6en","null","<div id=""countdown"">***</div>","null","","",""
"audio-keyboard-response","647","1306436","0.0-647.0","pbsmkiwh6en","null","perceptual_learning_stimuli/f2/r_lead.wav","null","","",""
"survey-text","648","1308024","0.0-648.0","pbsmkiwh6en","1584.1999999284744","","","{""Q0"":""lead""}","lead","lead"
"html-keyboard-response","649","1310044","0.0-649.0","pbsmkiwh6en","null","lead","null","","",""
"audio-keyboard-response","650","1311802","0.0-650.0","pbsmkiwh6en","null","","null","","",""
"html-keyboard-response","651","1313827","0.0-651.0","pbsmkiwh6en","null","<div id=""countdown"">***</div>","null","","",""
"audio-keyboard-response","652","1314197","0.0-652.0","pbsmkiwh6en","null","perceptual_learning_stimuli/f2/r_rug.wav","null","","",""
"survey-text","653","1316288","0.0-653.0","pbsmkiwh6en","2087.6999999284744","","","{""Q0"":""frog""}","rug","frog"
"html-keyboard-response","654","1318300","0.0-654.0","pbsmkiwh6en","null","rug","null","","",""
"audio-keyboard-response","655","1320059","0.0-655.0","pbsmkiwh6en","null","","null","","",""
"html-keyboard-response","656","1322072","0.0-656.0","pbsmkiwh6en","null","<div id=""countdown"">***</div>","null","","",""
"audio-keyboard-response","657","1322387","0.0-657.0","pbsmkiwh6en","null","perceptual_learning_stimuli/f2/r_fed.wav","null","","",""
"survey-text","658","1324152","0.0-658.0","pbsmkiwh6en","1761.6000000238419","","","{""Q0"":""shed""}","fed","shed"
"html-keyboard-response","659","1326168","0.0-659.0","pbsmkiwh6en","null","fed","null","","",""
"audio-keyboard-response","660","1327936","0.0-660.0","pbsmkiwh6en","null","","null","","",""
"html-keyboard-response","661","1329950","0.0-661.0","pbsmkiwh6en","null","<div id=""countdown"">***</div>","null","","",""
"audio-keyboard-response","662","1330237","0.0-662.0","pbsmkiwh6en","null","perceptual_learning_stimuli/f2/r_wean.wav","null","","",""
"survey-text","663","1332000","0.0-663.0","pbsmkiwh6en","1759.2000000476837","","","{""Q0"":""reel""}","wean","reel"
"html-keyboard-response","664","1334015","0.0-664.0","pbsmkiwh6en","null","wean","null","","",""
"audio-keyboard-response","665","1335781","0.0-665.0","pbsmkiwh6en","null","","null","","",""
"html-keyboard-response","666","1337806","0.0-666.0","pbsmkiwh6en","null","<div id=""countdown"">***</div>","null","","",""
"audio-keyboard-response","667","1338118","0.0-667.0","pbsmkiwh6en","null","perceptual_learning_stimuli/f2/r_deep.wav","null","","",""
"survey-text","668","1341040","0.0-668.0","pbsmkiwh6en","2918.8000000715256","","","{""Q0"":""deep""}","deep","deep"
"html-keyboard-response","669","1343047","0.0-669.0","pbsmkiwh6en","null","deep","null","","",""
"audio-keyboard-response","670","1344810","0.0-670.0","pbsmkiwh6en","null","","null","","",""
"html-keyboard-response","671","1346831","0.0-671.0","pbsmkiwh6en","null","<div id=""countdown"">***</div>","null","","",""
"audio-keyboard-response","672","1347198","0.0-672.0","pbsmkiwh6en","null","perceptual_learning_stimuli/f2/r_fate.wav","null","","",""
"survey-text","673","1348840","0.0-673.0","pbsmkiwh6en","1638.3999999761581","","","{""Q0"":""fight""}","fate","fight"
"html-keyboard-response","674","1350854","0.0-674.0","pbsmkiwh6en","null","fate","null","","",""
"audio-keyboard-response","675","1352611","0.0-675.0","pbsmkiwh6en","null","","null","","",""
"html-keyboard-response","676","1354637","0.0-676.0","pbsmkiwh6en","null","<div id=""countdown"">***</div>","null","","",""
"audio-keyboard-response","677","1354829","0.0-677.0","pbsmkiwh6en","null","perceptual_learning_stimuli/f2/r_odd.wav","null","","",""
"survey-text","678","1358736","0.0-678.0","pbsmkiwh6en","3903.600000023842","","","{""Q0"":""odd""}","odd","odd"
"html-keyboard-response","679","1360757","0.0-679.0","pbsmkiwh6en","null","odd","null","","",""
"audio-keyboard-response","680","1362520","0.0-680.0","pbsmkiwh6en","null","","null","","",""
"html-keyboard-response","681","1364534","0.0-681.0","pbsmkiwh6en","null","<div id=""countdown"">***</div>","null","","",""
"audio-keyboard-response","682","1364919","0.0-682.0","pbsmkiwh6en","null","perceptual_learning_stimuli/f2/r_charge.wav","null","","",""
"survey-text","683","1368392","0.0-683.0","pbsmkiwh6en","3469.5","","","{""Q0"":""charge""}","charge","charge"
"html-keyboard-response","684","1370404","0.0-684.0","pbsmkiwh6en","null","charge","null","","",""
"audio-keyboard-response","685","1372166","0.0-685.0","pbsmkiwh6en","null","","null","","",""
"html-keyboard-response","686","1374194","0.0-686.0","pbsmkiwh6en","null","<div id=""countdown"">***</div>","null","","",""
"audio-keyboard-response","687","1374460","0.0-687.0","pbsmkiwh6en","null","perceptual_learning_stimuli/f2/r_end.wav","null","","",""
"survey-text","688","1378776","0.0-688.0","pbsmkiwh6en","4312.800000071526","","","{""Q0"":""held""}","end","held"
"html-keyboard-response","689","1380793","0.0-689.0","pbsmkiwh6en","null","end","null","","",""
"audio-keyboard-response","690","1382561","0.0-690.0","pbsmkiwh6en","null","","null","","",""
"html-keyboard-response","691","1384575","0.0-691.0","pbsmkiwh6en","null","<div id=""countdown"">***</div>","null","","",""
"audio-keyboard-response","692","1385070","0.0-692.0","pbsmkiwh6en","null","perceptual_learning_stimuli/f2/r_next.wav","null","","",""
"survey-text","693","1387072","0.0-693.0","pbsmkiwh6en","1998","","","{""Q0"":""nexr""}","next","nexr"
"html-keyboard-response","694","1389083","0.0-694.0","pbsmkiwh6en","null","next","null","","",""
"audio-keyboard-response","695","1390849","0.0-695.0","pbsmkiwh6en","null","","null","","",""
"html-keyboard-response","696","1392877","0.0-696.0","pbsmkiwh6en","null","<div id=""countdown"">***</div>","null","","",""
"audio-keyboard-response","697","1393251","0.0-697.0","pbsmkiwh6en","null","perceptual_learning_stimuli/f2/r_notch.wav","null","","",""
"survey-text","698","1396680","0.0-698.0","pbsmkiwh6en","3426","","","{""Q0"":""nudge""}","notch","nudge"
"html-keyboard-response","699","1398695","0.0-699.0","pbsmkiwh6en","null","notch","null","","",""
"audio-keyboard-response","700","1400451","0.0-700.0","pbsmkiwh6en","null","","null","","",""
"html-keyboard-response","701","1402468","0.0-701.0","pbsmkiwh6en","null","<div id=""countdown"">***</div>","null","","",""
"audio-keyboard-response","702","1402681","0.0-702.0","pbsmkiwh6en","null","perceptual_learning_stimuli/f2/r_kit.wav","null","","",""
"survey-text","703","1404416","0.0-703.0","pbsmkiwh6en","1731.2000000476837","","","{""Q0"":""kit""}","kit","kit"
"html-keyboard-response","704","1406431","0.0-704.0","pbsmkiwh6en","null","kit","null","","",""
"audio-keyboard-response","705","1408195","0.0-705.0","pbsmkiwh6en","null","","null","","",""
"html-keyboard-response","706","1410212","0.0-706.0","pbsmkiwh6en","null","<div id=""countdown"">***</div>","null","","",""
"audio-keyboard-response","707","1410492","0.0-707.0","pbsmkiwh6en","null","perceptual_learning_stimuli/f2/r_hit.wav","null","","",""
"survey-text","708","1412104","0.0-708.0","pbsmkiwh6en","1609","","","{""Q0"":""fit""}","hit","fit"
"html-keyboard-response","709","1414133","0.0-709.0","pbsmkiwh6en","null","hit","null","","",""
"audio-keyboard-response","710","1415900","0.0-710.0","pbsmkiwh6en","null","","null","","",""
"html-keyboard-response","711","1417924","0.0-711.0","pbsmkiwh6en","null","<div id=""countdown"">***</div>","null","","",""
"audio-keyboard-response","712","1418382","0.0-712.0","pbsmkiwh6en","null","perceptual_learning_stimuli/f2/r_skid.wav","null","","",""
"survey-text","713","1420976","0.0-713.0","pbsmkiwh6en","2590.600000023842","","","{""Q0"":""skid""}","skid","skid"
"html-keyboard-response","714","1422991","0.0-714.0","pbsmkiwh6en","null","skid","null","","",""
"audio-keyboard-response","715","1424758","0.0-715.0","pbsmkiwh6en","null","","null","","",""
"html-keyboard-response","716","1426771","0.0-716.0","pbsmkiwh6en","null","<div id=""countdown"">***</div>","null","","",""
"audio-keyboard-response","717","1427122","0.0-717.0","pbsmkiwh6en","null","perceptual_learning_stimuli/f2/r_reek.wav","null","","",""
"survey-text","718","1429768","0.0-718.0","pbsmkiwh6en","2642.100000023842","","","{""Q0"":""freak""}","reek","freak"
"html-keyboard-response","719","1431785","0.0-719.0","pbsmkiwh6en","null","reek","null","","",""
"audio-keyboard-response","720","1433549","0.0-720.0","pbsmkiwh6en","null","","null","","",""
"html-keyboard-response","721","1435568","0.0-721.0","pbsmkiwh6en","null","<div id=""countdown"">***</div>","null","","",""
"audio-keyboard-response","722","1436003","0.0-722.0","pbsmkiwh6en","null","perceptual_learning_stimuli/f2/r_skit.wav","null","","",""
"survey-text","723","1437936","0.0-723.0","pbsmkiwh6en","1929.6999999284744","","","{""Q0"":""skit""}","skit","skit"
"html-keyboard-response","724","1439960","0.0-724.0","pbsmkiwh6en","null","skit","null","","",""
"audio-keyboard-response","725","1441726","0.0-725.0","pbsmkiwh6en","null","","null","","",""
"html-keyboard-response","726","1443754","0.0-726.0","pbsmkiwh6en","null","<div id=""countdown"">***</div>","null","","",""
"audio-keyboard-response","727","1444033","0.0-727.0","pbsmkiwh6en","null","perceptual_learning_stimuli/f2/r_raw.wav","null","","",""
"survey-text","728","1449080","0.0-728.0","pbsmkiwh6en","5043.300000071526","","","{""Q0"":""fraud""}","raw","fraud"
"html-keyboard-response","729","1451094","0.0-729.0","pbsmkiwh6en","null","raw","null","","",""
"audio-keyboard-response","730","1452862","0.0-730.0","pbsmkiwh6en","null","","null","","",""
"html-keyboard-response","731","1454891","0.0-731.0","pbsmkiwh6en","null","<div id=""countdown"">***</div>","null","","",""
"audio-keyboard-response","732","1455305","0.0-732.0","pbsmkiwh6en","null","perceptual_learning_stimuli/f2/r_flood.wav","null","","",""
"survey-text","733","1457337","0.0-733.0","pbsmkiwh6en","2028.3999999761581","","","{""Q0"":""flood""}","flood","flood"
"html-keyboard-response","734","1459355","0.0-734.0","pbsmkiwh6en","null","flood","null","","",""
"audio-keyboard-response","735","1461118","0.0-735.0","pbsmkiwh6en","null","","null","","",""
"html-keyboard-response","736","1463128","0.0-736.0","pbsmkiwh6en","null","<div id=""countdown"">***</div>","null","","",""
"audio-keyboard-response","737","1463595","0.0-737.0","pbsmkiwh6en","null","perceptual_learning_stimuli/f2/r_boost.wav","null","","",""
"survey-text","738","1467505","0.0-738.0","pbsmkiwh6en","3906.5","","","{""Q0"":""boost""}","boost","boost"
"html-keyboard-response","739","1469525","0.0-739.0","pbsmkiwh6en","null","boost","null","","",""
"audio-keyboard-response","740","1471287","0.0-740.0","pbsmkiwh6en","null","","null","","",""
"html-keyboard-response","741","1473310","0.0-741.0","pbsmkiwh6en","null","<div id=""countdown"">***</div>","null","","",""
"audio-keyboard-response","742","1473586","0.0-742.0","pbsmkiwh6en","null","perceptual_learning_stimuli/f2/r_lid.wav","null","","",""
"survey-text","743","1476721","0.0-743.0","pbsmkiwh6en","3131.8000000715256","","","{""Q0"":""lid""}","lid","lid"
"html-keyboard-response","744","1478738","0.0-744.0","pbsmkiwh6en","null","lid","null","","",""
"audio-keyboard-response","745","1480503","0.0-745.0","pbsmkiwh6en","null","","null","","",""
"html-keyboard-response","746","1482523","0.0-746.0","pbsmkiwh6en","null","<div id=""countdown"">***</div>","null","","",""
"audio-keyboard-response","747","1483026","0.0-747.0","pbsmkiwh6en","null","perceptual_learning_stimuli/f2/r_spice.wav","null","","",""
"survey-text","748","1484809","0.0-748.0","pbsmkiwh6en","1779.5","","","{""Q0"":""spice""}","spice","spice"
"html-keyboard-response","749","1486825","0.0-749.0","pbsmkiwh6en","null","spice","null","","",""
"audio-keyboard-response","750","1488593","0.0-750.0","pbsmkiwh6en","null","","null","","",""
"html-keyboard-response","751","1490612","0.0-751.0","pbsmkiwh6en","null","<div id=""countdown"">***</div>","null","","",""
"audio-keyboard-response","752","1490847","0.0-752.0","pbsmkiwh6en","null","perceptual_learning_stimuli/f2/r_teen.wav","null","","",""
"survey-text","753","1492673","0.0-753.0","pbsmkiwh6en","1823","","","{""Q0"":""deal""}","teen","deal"
"html-keyboard-response","754","1494689","0.0-754.0","pbsmkiwh6en","null","teen","null","","",""
"audio-keyboard-response","755","1496447","0.0-755.0","pbsmkiwh6en","null","","null","","",""
"html-keyboard-response","756","1498474","0.0-756.0","pbsmkiwh6en","null","<div id=""countdown"">***</div>","null","","",""
"audio-keyboard-response","757","1498767","0.0-757.0","pbsmkiwh6en","null","perceptual_learning_stimuli/f2/r_toss.wav","null","","",""
"survey-text","758","1500633","0.0-758.0","pbsmkiwh6en","1862.6000000238419","","","{""Q0"":""toss""}","toss","toss"
"html-keyboard-response","759","1502659","0.0-759.0","pbsmkiwh6en","null","toss","null","","",""
"audio-keyboard-response","760","1504416","0.0-760.0","pbsmkiwh6en","null","","null","","",""
"html-keyboard-response","761","1506440","0.0-761.0","pbsmkiwh6en","null","<div id=""countdown"">***</div>","null","","",""
"audio-keyboard-response","762","1506917","0.0-762.0","pbsmkiwh6en","null","perceptual_learning_stimuli/f2/r_paid.wav","null","","",""
"survey-text","763","1509857","0.0-763.0","pbsmkiwh6en","2936.2999999523163","","","{""Q0"":""played""}","paid","played"
"html-keyboard-response","764","1511871","0.0-764.0","pbsmkiwh6en","null","paid","null","","",""
"audio-keyboard-response","765","1513630","0.0-765.0","pbsmkiwh6en","null","","null","","",""
"html-keyboard-response","766","1515647","0.0-766.0","pbsmkiwh6en","null","<div id=""countdown"">***</div>","null","","",""
"audio-keyboard-response","767","1515977","0.0-767.0","pbsmkiwh6en","null","perceptual_learning_stimuli/f2/r_sup.wav","null","","",""
"survey-text","768","1518912","0.0-768.0","pbsmkiwh6en","2931.4000000953674","","","{""Q0"":""sat""}","sup","sat"
"html-keyboard-response","769","1520924","0.0-769.0","pbsmkiwh6en","null","sup","null","","",""
"audio-keyboard-response","770","1522692","0.0-770.0","pbsmkiwh6en","null","","null","","",""
"html-keyboard-response","771","1524716","0.0-771.0","pbsmkiwh6en","null","<div id=""countdown"">***</div>","null","","",""
"audio-keyboard-response","772","1524958","0.0-772.0","pbsmkiwh6en","null","perceptual_learning_stimuli/f2/r_cook.wav","null","","",""
"survey-text","773","1526712","0.0-773.0","pbsmkiwh6en","1751.1000000238419","","","{""Q0"":""took""}","cook","took"
"html-keyboard-response","774","1528732","0.0-774.0","pbsmkiwh6en","null","cook","null","","",""
"audio-keyboard-response","775","1530493","0.0-775.0","pbsmkiwh6en","null","","null","","",""
"html-keyboard-response","776","1532519","0.0-776.0","pbsmkiwh6en","null","<div id=""countdown"">***</div>","null","","",""
"audio-keyboard-response","777","1532778","0.0-777.0","pbsmkiwh6en","null","perceptual_learning_stimuli/f2/r_tick.wav","null","","",""
"survey-text","778","1536400","0.0-778.0","pbsmkiwh6en","3619","","","{""Q0"":""tick""}","tick","tick"
"html-keyboard-response","779","1538410","0.0-779.0","pbsmkiwh6en","null","tick","null","","",""
"audio-keyboard-response","780","1540177","0.0-780.0","pbsmkiwh6en","null","","null","","",""
"html-keyboard-response","781","1542201","0.0-781.0","pbsmkiwh6en","null","<div id=""countdown"">***</div>","null","","",""
"audio-keyboard-response","782","1542679","0.0-782.0","pbsmkiwh6en","null","perceptual_learning_stimuli/f2/r_crutch.wav","null","","",""
"survey-text","783","1546384","0.0-783.0","pbsmkiwh6en","3702.1999999284744","","","{""Q0"":""trudge""}","crutch","trudge"
"html-keyboard-response","784","1548402","0.0-784.0","pbsmkiwh6en","null","crutch","null","","",""
"audio-keyboard-response","785","1550155","0.0-785.0","pbsmkiwh6en","null","","null","","",""
"html-keyboard-response","786","1552169","0.0-786.0","pbsmkiwh6en","null","<div id=""countdown"">***</div>","null","","",""
"audio-keyboard-response","787","1552729","0.0-787.0","pbsmkiwh6en","null","perceptual_learning_stimuli/f2/r_scotch.wav","null","","",""
"survey-text","788","1554912","0.0-788.0","pbsmkiwh6en","2179.5","","","{""Q0"":""sketch""}","scotch","sketch"
"html-keyboard-response","789","1556928","0.0-789.0","pbsmkiwh6en","null","scotch","null","","",""
"audio-keyboard-response","790","1558695","0.0-790.0","pbsmkiwh6en","null","","null","","",""
"html-keyboard-response","791","1560710","0.0-791.0","pbsmkiwh6en","null","<div id=""countdown"">***</div>","null","","",""
"audio-keyboard-response","792","1561170","0.0-792.0","pbsmkiwh6en","null","perceptual_learning_stimuli/f2/r_beast.wav","null","","",""
"survey-text","793","1564208","0.0-793.0","pbsmkiwh6en","3035","","","{""Q0"":""beast""}","beast","beast"
"html-keyboard-response","794","1566226","0.0-794.0","pbsmkiwh6en","null","beast","null","","",""
"audio-keyboard-response","795","1567991","0.0-795.0","pbsmkiwh6en","null","","null","","",""
"html-keyboard-response","796","1570004","0.0-796.0","pbsmkiwh6en","null","<div id=""countdown"">***</div>","null","","",""
"audio-keyboard-response","797","1570430","0.0-797.0","pbsmkiwh6en","null","perceptual_learning_stimuli/f2/r_budge.wav","null","","",""
"survey-text","798","1572241","0.0-798.0","pbsmkiwh6en","1806.5","","","{""Q0"":""budge""}","budge","budge"
"html-keyboard-response","799","1574257","0.0-799.0","pbsmkiwh6en","null","budge","null","","",""
"audio-keyboard-response","800","1576019","0.0-800.0","pbsmkiwh6en","null","","null","","",""
"html-keyboard-response","801","1578032","0.0-801.0","pbsmkiwh6en","null","<div id=""countdown"">***</div>","null","","",""
"audio-keyboard-response","802","1578641","0.0-802.0","pbsmkiwh6en","null","perceptual_learning_stimuli/f2/r_probe.wav","null","","",""
"survey-text","803","1580705","0.0-803.0","pbsmkiwh6en","2060.1999999284744","","","{""Q0"":""probre""}","probe","probre"
"html-keyboard-response","804","1582719","0.0-804.0","pbsmkiwh6en","null","probe","null","","",""
"audio-keyboard-response","805","1584483","0.0-805.0","pbsmkiwh6en","null","","null","","",""
"html-keyboard-response","806","1625761","0.0-806.0","pbsmkiwh6en","40769.199999928474","The next block will be similar to the last block as again you will receive feedback after you have typed in the word that you have heard. Please make sure to note if there is a difference between what you typed and what the word really is.","13","","",""
"html-keyboard-response","807","1627763","0.0-807.0","pbsmkiwh6en","null","<div id=""countdown"">***</div>","null","","",""
"audio-keyboard-response","808","1628141","0.0-808.0","pbsmkiwh6en","null","perceptual_learning_stimuli/f3/r_hiss.wav","null","","",""
"survey-text","809","1630329","0.0-809.0","pbsmkiwh6en","2183.5999999046326","","","{""Q0"":""fist""}","hiss","fist"
"html-keyboard-response","810","1632343","0.0-810.0","pbsmkiwh6en","null","hiss","null","","",""
"audio-keyboard-response","811","1634102","0.0-811.0","pbsmkiwh6en","null","","null","","",""
"html-keyboard-response","812","1636119","0.0-812.0","pbsmkiwh6en","null","<div id=""countdown"">***</div>","null","","",""
"audio-keyboard-response","813","1636421","0.0-813.0","pbsmkiwh6en","null","perceptual_learning_stimuli/f3/r_leach.wav","null","","",""
"survey-text","814","1640384","0.0-814.0","pbsmkiwh6en","3959.5","","","{""Q0"":""leash""}","leach","leash"
"html-keyboard-response","815","1642401","0.0-815.0","pbsmkiwh6en","null","leach","null","","",""
"audio-keyboard-response","816","1644165","0.0-816.0","pbsmkiwh6en","null","","null","","",""
"html-keyboard-response","817","1646178","0.0-817.0","pbsmkiwh6en","null","<div id=""countdown"">***</div>","null","","",""
"audio-keyboard-response","818","1646462","0.0-818.0","pbsmkiwh6en","null","perceptual_learning_stimuli/f3/r_lash.wav","null","","",""
"survey-text","819","1647992","0.0-819.0","pbsmkiwh6en","1526.9000000953674","","","{""Q0"":""lash""}","lash","lash"
"html-keyboard-response","820","1650006","0.0-820.0","pbsmkiwh6en","null","lash","null","","",""
"audio-keyboard-response","821","1651770","0.0-821.0","pbsmkiwh6en","null","","null","","",""
"html-keyboard-response","822","1653801","0.0-822.0","pbsmkiwh6en","null","<div id=""countdown"">***</div>","null","","",""
"audio-keyboard-response","823","1654163","0.0-823.0","pbsmkiwh6en","null","perceptual_learning_stimuli/f3/r_bob.wav","null","","",""
"survey-text","824","1660792","0.0-824.0","pbsmkiwh6en","6626.200000047684","","","{""Q0"":""bud""}","bob","bud"
"html-keyboard-response","825","1662809","0.0-825.0","pbsmkiwh6en","null","bob","null","","",""
"audio-keyboard-response","826","1664576","0.0-826.0","pbsmkiwh6en","null","","null","","",""
"html-keyboard-response","827","1666594","0.0-827.0","pbsmkiwh6en","null","<div id=""countdown"">***</div>","null","","",""
"audio-keyboard-response","828","1666943","0.0-828.0","pbsmkiwh6en","null","perceptual_learning_stimuli/f3/r_sack.wav","null","","",""
"survey-text","829","1669744","0.0-829.0","pbsmkiwh6en","2797.600000023842","","","{""Q0"":""sack""}","sack","sack"
"html-keyboard-response","830","1671769","0.0-830.0","pbsmkiwh6en","null","sack","null","","",""
"audio-keyboard-response","831","1673528","0.0-831.0","pbsmkiwh6en","null","","null","","",""
"html-keyboard-response","832","1675548","0.0-832.0","pbsmkiwh6en","null","<div id=""countdown"">***</div>","null","","",""
"audio-keyboard-response","833","1675904","0.0-833.0","pbsmkiwh6en","null","perceptual_learning_stimuli/f3/r_cast.wav","null","","",""
"survey-text","834","1679968","0.0-834.0","pbsmkiwh6en","4061.2000000476837","","","{""Q0"":""cast""}","cast","cast"
"html-keyboard-response","835","1682001","0.0-835.0","pbsmkiwh6en","null","cast","null","","",""
"audio-keyboard-response","836","1683769","0.0-836.0","pbsmkiwh6en","null","","null","","",""
"html-keyboard-response","837","1685788","0.0-837.0","pbsmkiwh6en","null","<div id=""countdown"">***</div>","null","","",""
