"trial_type","trial_index","time_elapsed","internal_node_id","rt","stimulus","button_pressed","key_press","rt_audio","designation","responded_to_audio","N","TYPE","HIT","FA","HIT_1B","HIT_2B","HIT_3B","FA_1B","FA_2B","FA_3B"
"pavlovia","0","7","0.0-0.0","","","","","","","","","","","","","","","","",""
"html-button-response","1","17154","0.0-1.0-0.0-0.0","17144","<p>You will now complete an auditory memory task. This will take approximately 15 minutes.</p><p>To learn more about the task, please advance to the next screen.","0","","","","","","","","","","","","","",""
"html-button-response","2","26545","0.0-1.0-0.0-1.0","9139","<p>In this task, you will hear a sequence of letters. The letters will be presented one at a time, and a new sound will play every 2.5 seconds.<p>Your job is to listen closely to these sounds for specific kinds of <b>repeats</b>.</p>","0","","","","","","","","","","","","","",""
"html-button-response","3","55113","0.0-1.0-0.0-2.0","28302","<p>If you are asked to complete a <b>1-back</b>, you must press SPACEBAR every time the current sound matches the sound presented <b>one</b> position previously.<br>Otherwise, you do not have to respond.</p><p>For example, imagine you heard the following sound sequence:</p><p style='color:darkblue'>B...D...<b style='color:red'>D</b>...F...<b style='color:red'>F</b>...<b style='color:red'>F</b>...C...E...</p><p>You would respond to the sounds printed in <b style='color:red'>red</b>, as these were repeated <b>one</b> position previously.</p><p></p>","0","","","","","","","","","","","","","",""
"html-button-response","4","74409","0.0-1.0-0.0-3.0","19029","<p>If you are asked to complete a <b>2-back</b>, you must press SPACEBAR every time the current sound matches the sound presented <b>two</b> positions previously.<br>Otherwise, you do not have to respond.</p><p>For example, imagine you heard the following sound sequence:</p><p style='color:darkblue'>B...D...<b style='color:red'>B</b>...C...<b style='color:red'>B</b>...<b style='color:red'>C</b>...E...F...</p><p>You would respond to the sounds printed in <b style='color:red'>red</b>, as these were repeated <b>two</b> positions previously.</p><p></p>","0","","","","","","","","","","","","","",""
"html-button-response","5","84264","0.0-1.0-0.0-4.0","9589","<p>If you are asked to complete a <b>3-back</b>, you must press SPACEBAR every time the current sound matches the sound presented <b>three</b> positions previously.<br>Otherwise, you do not have to respond.</p><p>For example, imagine you heard the following sound sequence:</p><p style='color:darkblue'>B...D...G...<b style='color:red'>B</b>...<b style='color:red'>D</b>...C...E...<b style='color:red'>D</b>...</p><p>You would respond to the sounds printed in <b style='color:red'>red</b>, as these were repeated <b>three</b> positions previously.</p><p></p>","0","","","","","","","","","","","","","",""
"html-button-response","6","91552","0.0-1.0-0.0-5.0","7029","<p>As you can imagine, the task becomes harder as the delay (1, 2, or 3) increases.</p><p>Please make sure you are in a quiet listening environment and free from distraction.<br>You will receive breaks approximately every 90 seconds to minimize fatigue.</p>","0","","","","","","","","","","","","","",""
"html-button-response","7","98225","0.0-1.0-0.0-6.0","6405","<p>This concludes the introduction to the memory task.</p><p>Please advance to the next screen to receive further instructions.</p>","0","","","","","","","","","","","","","",""
"html-button-response","8","103840","0.0-1.0-1.0-0.0","5353","<p>You will now complete a <strong>1-back.</strong></p><p>Remember, this means that you should press SPACEBAR every time the sound you hear matches the one presented <strong>1</strong> position(s) previously.</p>","0","","","","","","","","","","","","","",""
"audio-keyboard-response","9","106344","0.0-1.0-1.0-1.0-0.0","null","letters/5.wav","","null","null","n-back-trial","0","1","FIRSTS","","0","","","","","",""
"audio-keyboard-response","10","108857","0.0-1.0-1.0-1.1-0.1","null","letters/2.wav","","null","null","n-back-trial","0","1","NT","","0","","","","","",""
"audio-keyboard-response","11","111376","0.0-1.0-1.0-1.2-0.2","null","letters/4.wav","","null","null","n-back-trial","0","1","NT","","0","","","","","",""
"audio-keyboard-response","12","113877","0.0-1.0-1.0-1.3-0.3","1131","letters/4.wav","","32","1131","n-back-trial","1","1","T","1","","","","","","",""
"audio-keyboard-response","13","116379","0.0-1.0-1.0-1.4-0.4","1059","letters/4.wav","","32","1059","n-back-trial","1","1","T","1","","","","","","",""
"audio-keyboard-response","14","118898","0.0-1.0-1.0-1.5-0.5","null","letters/3.wav","","null","null","n-back-trial","0","1","NT","","0","","","","","",""
"audio-keyboard-response","15","121408","0.0-1.0-1.0-1.6-0.6","null","letters/2.wav","","null","null","n-back-trial","0","1","NT","","0","","","","","",""
"audio-keyboard-response","16","123928","0.0-1.0-1.0-1.7-0.7","null","letters/8.wav","","null","null","n-back-trial","0","1","NT","","0","","","","","",""
"audio-keyboard-response","17","126438","0.0-1.0-1.0-1.8-0.8","960","letters/8.wav","","32","960","n-back-trial","1","1","T","1","","","","","","",""
"audio-keyboard-response","18","128940","0.0-1.0-1.0-1.9-0.9","968","letters/8.wav","","32","968","n-back-trial","1","1","T","1","","","","","","",""
"audio-keyboard-response","19","131458","0.0-1.0-1.0-1.10-0.10","null","letters/5.wav","","null","null","n-back-trial","0","1","NT","","0","","","","","",""
"audio-keyboard-response","20","133978","0.0-1.0-1.0-1.11-0.11","891","letters/5.wav","","32","891","n-back-trial","1","1","T","1","","","","","","",""
"audio-keyboard-response","21","136498","0.0-1.0-1.0-1.12-0.12","null","letters/8.wav","","null","null","n-back-trial","0","1","NT","","0","","","","","",""
"audio-keyboard-response","22","139008","0.0-1.0-1.0-1.13-0.13","941","letters/8.wav","","32","941","n-back-trial","1","1","T","1","","","","","","",""
"audio-keyboard-response","23","141529","0.0-1.0-1.0-1.14-0.14","null","letters/6.wav","","null","null","n-back-trial","0","1","NT","","0","","","","","",""
"audio-keyboard-response","24","144039","0.0-1.0-1.0-1.15-0.15","null","letters/2.wav","","null","null","n-back-trial","0","1","NT","","0","","","","","",""
"audio-keyboard-response","25","146542","0.0-1.0-1.0-1.16-0.16","null","letters/8.wav","","null","null","n-back-trial","0","1","NT","","0","","","","","",""
"audio-keyboard-response","26","149049","0.0-1.0-1.0-1.17-0.17","941","letters/8.wav","","32","941","n-back-trial","1","1","T","1","","","","","","",""
"audio-keyboard-response","27","151551","0.0-1.0-1.0-1.18-0.18","1000","letters/8.wav","","32","1000","n-back-trial","1","1","T","1","","","","","","",""
"audio-keyboard-response","28","154059","0.0-1.0-1.0-1.19-0.19","949","letters/8.wav","","32","949","n-back-trial","1","1","T","1","","","","","","",""
"audio-keyboard-response","29","156580","0.0-1.0-1.0-1.20-0.20","null","letters/3.wav","","null","null","n-back-trial","0","1","NT","","0","","","","","",""
"audio-keyboard-response","30","159099","0.0-1.0-1.0-1.21-0.21","null","letters/5.wav","","null","null","n-back-trial","0","1","NT","","0","","","","","",""
"audio-keyboard-response","31","161620","0.0-1.0-1.0-1.22-0.22","null","letters/4.wav","","null","null","n-back-trial","0","1","NT","","0","","","","","",""
"audio-keyboard-response","32","164130","0.0-1.0-1.0-1.23-0.23","null","letters/8.wav","","null","null","n-back-trial","0","1","NT","","0","","","","","",""
"audio-keyboard-response","33","166650","0.0-1.0-1.0-1.24-0.24","920","letters/8.wav","","32","920","n-back-trial","1","1","T","1","","","","","","",""
"audio-keyboard-response","34","169170","0.0-1.0-1.0-1.25-0.25","null","letters/4.wav","","null","null","n-back-trial","0","1","NT","","0","","","","","",""
"audio-keyboard-response","35","171690","0.0-1.0-1.0-1.26-0.26","null","letters/5.wav","","null","null","n-back-trial","0","1","NT","","0","","","","","",""
"audio-keyboard-response","36","174192","0.0-1.0-1.0-1.27-0.27","null","letters/4.wav","","null","null","n-back-trial","0","1","NT","","0","","","","","",""
"audio-keyboard-response","37","176711","0.0-1.0-1.0-1.28-0.28","null","letters/2.wav","","null","null","n-back-trial","0","1","NT","","0","","","","","",""
"audio-keyboard-response","38","179231","0.0-1.0-1.0-1.29-0.29","null","letters/3.wav","","null","null","n-back-trial","0","1","NT","","0","","","","","",""
"audio-keyboard-response","39","181741","0.0-1.0-1.0-1.30-0.30","null","letters/8.wav","","null","null","n-back-trial","0","1","NT","","0","","","","","",""
"html-button-response","40","184873","0.0-1.0-1.0-2.0","3131","<p>You may take a short break if you wish.</p><p>Click the button below when you are ready to continue.</p>","0","","","","","","","","","","","","","",""
"html-button-response","41","189153","0.0-1.0-1.1-0.1","4279","<p>You will now complete a <strong>1-back.</strong></p><p>Remember, this means that you should press SPACEBAR every time the sound you hear matches the one presented <strong>1</strong> position(s) previously.</p>","0","","","","","","","","","","","","","",""
"audio-keyboard-response","42","191661","0.0-1.0-1.1-1.31-0.31","null","letters/2.wav","","null","null","n-back-trial","0","1","FIRSTS","","0","","","","","",""
"audio-keyboard-response","43","194171","0.0-1.0-1.1-1.32-0.32","null","letters/5.wav","","null","null","n-back-trial","0","1","NT","","0","","","","","",""
"audio-keyboard-response","44","196692","0.0-1.0-1.1-1.33-0.33","null","letters/7.wav","","null","null","n-back-trial","0","1","NT","","0","","","","","",""
"audio-keyboard-response","45","199211","0.0-1.0-1.1-1.34-0.34","1181","letters/7.wav","","32","1181","n-back-trial","1","1","T","1","","","","","","",""
"audio-keyboard-response","46","201731","0.0-1.0-1.1-1.35-0.35","null","letters/5.wav","","null","null","n-back-trial","0","1","NT","","0","","","","","",""
"audio-keyboard-response","47","204252","0.0-1.0-1.1-1.36-0.36","1840","letters/5.wav","","32","1840","n-back-trial","1","1","T","1","","","","","","",""
"audio-keyboard-response","48","206762","0.0-1.0-1.1-1.37-0.37","1139","letters/5.wav","","32","1139","n-back-trial","1","1","T","1","","","","","","",""
"audio-keyboard-response","49","209264","0.0-1.0-1.1-1.38-0.38","1480","letters/5.wav","","32","1480","n-back-trial","1","1","T","1","","","","","","",""
"audio-keyboard-response","50","211782","0.0-1.0-1.1-1.39-0.39","null","letters/4.wav","","null","null","n-back-trial","0","1","NT","","0","","","","","",""
"audio-keyboard-response","51","214292","0.0-1.0-1.1-1.40-0.40","null","letters/8.wav","","null","null","n-back-trial","0","1","NT","","0","","","","","",""
"audio-keyboard-response","52","216813","0.0-1.0-1.1-1.41-0.41","null","letters/6.wav","","null","null","n-back-trial","0","1","NT","","0","","","","","",""
"audio-keyboard-response","53","219332","0.0-1.0-1.1-1.42-0.42","null","letters/4.wav","","null","null","n-back-trial","0","1","NT","","0","","","","","",""
"audio-keyboard-response","54","221853","0.0-1.0-1.1-1.43-0.43","null","letters/7.wav","","null","null","n-back-trial","0","1","NT","","0","","","","","",""
"audio-keyboard-response","55","224373","0.0-1.0-1.1-1.44-0.44","null","letters/4.wav","","null","null","n-back-trial","0","1","NT","","0","","","","","",""
"audio-keyboard-response","56","226874","0.0-1.0-1.1-1.45-0.45","null","letters/1.wav","","null","null","n-back-trial","0","1","NT","","0","","","","","",""
"audio-keyboard-response","57","229393","0.0-1.0-1.1-1.46-0.46","1109","letters/1.wav","","32","1109","n-back-trial","1","1","T","1","","","","","","",""
"audio-keyboard-response","58","231903","0.0-1.0-1.1-1.47-0.47","981","letters/1.wav","","32","981","n-back-trial","1","1","T","1","","","","","","",""
"audio-keyboard-response","59","234413","0.0-1.0-1.1-1.48-0.48","null","letters/8.wav","","null","null","n-back-trial","0","1","NT","","0","","","","","",""
"audio-keyboard-response","60","236933","0.0-1.0-1.1-1.49-0.49","null","letters/2.wav","","null","null","n-back-trial","0","1","NT","","0","","","","","",""
"audio-keyboard-response","61","239453","0.0-1.0-1.1-1.50-0.50","979","letters/2.wav","","32","979","n-back-trial","1","1","T","1","","","","","","",""
"audio-keyboard-response","62","241974","0.0-1.0-1.1-1.51-0.51","null","letters/5.wav","","null","null","n-back-trial","0","1","NT","","0","","","","","",""
"audio-keyboard-response","63","244494","0.0-1.0-1.1-1.52-0.52","960","letters/5.wav","","32","960","n-back-trial","1","1","T","1","","","","","","",""
"audio-keyboard-response","64","247004","0.0-1.0-1.1-1.53-0.53","null","letters/8.wav","","null","null","n-back-trial","0","1","NT","","0","","","","","",""
"audio-keyboard-response","65","249524","0.0-1.0-1.1-1.54-0.54","989","letters/8.wav","","32","989","n-back-trial","1","1","T","1","","","","","","",""
"audio-keyboard-response","66","252034","0.0-1.0-1.1-1.55-0.55","null","letters/6.wav","","null","null","n-back-trial","0","1","NT","","0","","","","","",""
"audio-keyboard-response","67","254535","0.0-1.0-1.1-1.56-0.56","null","letters/5.wav","","null","null","n-back-trial","0","1","NT","","0","","","","","",""
"audio-keyboard-response","68","257054","0.0-1.0-1.1-1.57-0.57","null","letters/1.wav","","null","null","n-back-trial","0","1","NT","","0","","","","","",""
"audio-keyboard-response","69","259564","0.0-1.0-1.1-1.58-0.58","968","letters/1.wav","","32","968","n-back-trial","1","1","T","1","","","","","","",""
"audio-keyboard-response","70","262085","0.0-1.0-1.1-1.59-0.59","null","letters/4.wav","","null","null","n-back-trial","0","1","NT","","0","","","","","",""
"audio-keyboard-response","71","264604","0.0-1.0-1.1-1.60-0.60","null","letters/8.wav","","null","null","n-back-trial","0","1","NT","","0","","","","","",""
"audio-keyboard-response","72","267115","0.0-1.0-1.1-1.61-0.61","null","letters/7.wav","","null","null","n-back-trial","0","1","NT","","0","","","","","",""
"html-button-response","73","269865","0.0-1.0-1.1-2.1","2749","<p>You may take a short break if you wish.</p><p>Click the button below when you are ready to continue.</p>","0","","","","","","","","","","","","","",""
"html-button-response","74","271497","0.0-1.0-1.2-0.2","1630","<p>You will now complete a <strong>1-back.</strong></p><p>Remember, this means that you should press SPACEBAR every time the sound you hear matches the one presented <strong>1</strong> position(s) previously.</p>","0","","","","","","","","","","","","","",""
"audio-keyboard-response","75","274015","0.0-1.0-1.2-1.62-0.62","null","letters/8.wav","","null","null","n-back-trial","0","1","FIRSTS","","0","","","","","",""
"audio-keyboard-response","76","276525","0.0-1.0-1.2-1.63-0.63","899","letters/8.wav","","32","899","n-back-trial","1","1","T","1","","","","","","",""
"audio-keyboard-response","77","279035","0.0-1.0-1.2-1.64-0.64","null","letters/4.wav","","null","null","n-back-trial","0","1","NT","","0","","","","","",""
"audio-keyboard-response","78","281546","0.0-1.0-1.2-1.65-0.65","1200","letters/4.wav","","32","1200","n-back-trial","1","1","T","1","","","","","","",""
"audio-keyboard-response","79","284066","0.0-1.0-1.2-1.66-0.66","null","letters/5.wav","","null","null","n-back-trial","0","1","NT","","0","","","","","",""
"audio-keyboard-response","80","286575","0.0-1.0-1.2-1.67-0.67","1021","letters/5.wav","","32","1021","n-back-trial","1","1","T","1","","","","","","",""
"audio-keyboard-response","81","289096","0.0-1.0-1.2-1.68-0.68","1128","letters/5.wav","","32","1128","n-back-trial","1","1","T","1","","","","","","",""
"audio-keyboard-response","82","291597","0.0-1.0-1.2-1.69-0.69","null","letters/4.wav","","null","null","n-back-trial","0","1","NT","","0","","","","","",""
"audio-keyboard-response","83","294106","0.0-1.0-1.2-1.70-0.70","null","letters/6.wav","","null","null","n-back-trial","0","1","NT","","0","","","","","",""
"audio-keyboard-response","84","296616","0.0-1.0-1.2-1.71-0.71","1800","letters/6.wav","","32","1800","n-back-trial","1","1","T","1","","","","","","",""
"audio-keyboard-response","85","299126","0.0-1.0-1.2-1.72-0.72","null","letters/3.wav","","null","null","n-back-trial","0","1","NT","","0","","","","","",""
"audio-keyboard-response","86","301635","0.0-1.0-1.2-1.73-0.73","859","letters/3.wav","","32","859","n-back-trial","1","1","T","1","","","","","","",""
"audio-keyboard-response","87","304145","0.0-1.0-1.2-1.74-0.74","null","letters/7.wav","","null","null","n-back-trial","0","1","NT","","0","","","","","",""
"audio-keyboard-response","88","306646","0.0-1.0-1.2-1.75-0.75","null","letters/4.wav","","null","null","n-back-trial","0","1","NT","","0","","","","","",""
"audio-keyboard-response","89","309166","0.0-1.0-1.2-1.76-0.76","null","letters/1.wav","","null","null","n-back-trial","0","1","NT","","0","","","","","",""
"audio-keyboard-response","90","311686","0.0-1.0-1.2-1.77-0.77","null","letters/6.wav","","null","null","n-back-trial","0","1","NT","","0","","","","","",""
"audio-keyboard-response","91","314207","0.0-1.0-1.2-1.78-0.78","null","letters/8.wav","","null","null","n-back-trial","0","1","NT","","0","","","","","",""
"audio-keyboard-response","92","316723","0.0-1.0-1.2-1.79-0.79","1379","letters/8.wav","","32","1379","n-back-trial","1","1","T","1","","","","","","",""
"audio-keyboard-response","93","319237","0.0-1.0-1.2-1.80-0.80","null","letters/6.wav","","null","null","n-back-trial","0","1","NT","","0","","","","","",""
"audio-keyboard-response","94","321757","0.0-1.0-1.2-1.81-0.81","null","letters/4.wav","","null","null","n-back-trial","0","1","NT","","0","","","","","",""
"audio-keyboard-response","95","324267","0.0-1.0-1.2-1.82-0.82","null","letters/2.wav","","null","null","n-back-trial","0","1","NT","","0","","","","","",""
"audio-keyboard-response","96","326777","0.0-1.0-1.2-1.83-0.83","880","letters/2.wav","","32","880","n-back-trial","1","1","T","1","","","","","","",""
"audio-keyboard-response","97","329297","0.0-1.0-1.2-1.84-0.84","null","letters/3.wav","","null","null","n-back-trial","0","1","NT","","0","","","","","",""
"audio-keyboard-response","98","331808","0.0-1.0-1.2-1.85-0.85","null","letters/7.wav","","null","null","n-back-trial","0","1","NT","","0","","","","","",""
"audio-keyboard-response","99","334317","0.0-1.0-1.2-1.86-0.86","null","letters/4.wav","","null","null","n-back-trial","0","1","NT","","0","","","","","",""
"audio-keyboard-response","100","336828","0.0-1.0-1.2-1.87-0.87","null","letters/7.wav","","null","null","n-back-trial","0","1","NT","","0","","","","","",""
"audio-keyboard-response","101","339348","0.0-1.0-1.2-1.88-0.88","null","letters/3.wav","","null","null","n-back-trial","0","1","NT","","0","","","","","",""
"audio-keyboard-response","102","341868","0.0-1.0-1.2-1.89-0.89","null","letters/2.wav","","null","null","n-back-trial","0","1","NT","","0","","","","","",""
"audio-keyboard-response","103","344389","0.0-1.0-1.2-1.90-0.90","1080","letters/2.wav","","32","1080","n-back-trial","1","1","T","1","","","","","","",""
"audio-keyboard-response","104","346908","0.0-1.0-1.2-1.91-0.91","null","letters/7.wav","","null","null","n-back-trial","0","1","NT","","0","","","","","",""
"audio-keyboard-response","105","349428","0.0-1.0-1.2-1.92-0.92","992","letters/7.wav","","32","992","n-back-trial","1","1","T","1","","","","","","",""
"html-button-response","106","353273","0.0-1.0-1.2-2.2","3843","<p>You may take a short break if you wish.</p><p>Click the button below when you are ready to continue.</p>","0","","","","","","","","","","","","","",""
"html-button-response","107","355713","0.0-1.0-1.3-0.3","2439","<p>You will now complete a <strong>1-back.</strong></p><p>Remember, this means that you should press SPACEBAR every time the sound you hear matches the one presented <strong>1</strong> position(s) previously.</p>","0","","","","","","","","","","","","","",""
"audio-keyboard-response","108","358219","0.0-1.0-1.3-1.93-0.93","null","letters/1.wav","","null","null","n-back-trial","0","1","FIRSTS","","0","","","","","",""
"audio-keyboard-response","109","360739","0.0-1.0-1.3-1.94-0.94","null","letters/2.wav","","null","null","n-back-trial","0","1","NT","","0","","","","","",""
"audio-keyboard-response","110","363249","0.0-1.0-1.3-1.95-0.95","1851","letters/2.wav","","32","1851","n-back-trial","1","1","T","1","","","","","","",""
"audio-keyboard-response","111","365769","0.0-1.0-1.3-1.96-0.96","null","letters/6.wav","","null","null","n-back-trial","0","1","NT","","0","","","","","",""
"audio-keyboard-response","112","368289","0.0-1.0-1.3-1.97-0.97","null","letters/1.wav","","null","null","n-back-trial","0","1","NT","","0","","","","","",""
"audio-keyboard-response","113","370799","0.0-1.0-1.3-1.98-0.98","null","letters/7.wav","","null","null","n-back-trial","0","1","NT","","0","","","","","",""
"audio-keyboard-response","114","373310","0.0-1.0-1.3-1.99-0.99","null","letters/3.wav","","null","null","n-back-trial","0","1","NT","","0","","","","","",""
"audio-keyboard-response","115","375819","0.0-1.0-1.3-1.100-0.100","null","letters/6.wav","","null","null","n-back-trial","0","1","NT","","0","","","","","",""
"audio-keyboard-response","116","378340","0.0-1.0-1.3-1.101-0.101","null","letters/3.wav","","null","null","n-back-trial","0","1","NT","","0","","","","","",""
"audio-keyboard-response","117","380860","0.0-1.0-1.3-1.102-0.102","null","letters/5.wav","","null","null","n-back-trial","0","1","NT","","0","","","","","",""
"audio-keyboard-response","118","383370","0.0-1.0-1.3-1.103-0.103","989","letters/5.wav","","32","989","n-back-trial","1","1","T","1","","","","","","",""
"audio-keyboard-response","119","385890","0.0-1.0-1.3-1.104-0.104","null","letters/2.wav","","null","null","n-back-trial","0","1","NT","","0","","","","","",""
"audio-keyboard-response","120","388400","0.0-1.0-1.3-1.105-0.105","949","letters/2.wav","","32","949","n-back-trial","1","1","T","1","","","","","","",""
"audio-keyboard-response","121","390920","0.0-1.0-1.3-1.106-0.106","1000","letters/2.wav","","32","1000","n-back-trial","1","1","T","1","","","","","","",""
"audio-keyboard-response","122","393430","0.0-1.0-1.3-1.107-0.107","null","letters/1.wav","","null","null","n-back-trial","0","1","NT","","0","","","","","",""
"audio-keyboard-response","123","395941","0.0-1.0-1.3-1.108-0.108","1021","letters/1.wav","","32","1021","n-back-trial","1","1","T","1","","","","","","",""
"audio-keyboard-response","124","398461","0.0-1.0-1.3-1.109-0.109","null","letters/3.wav","","null","null","n-back-trial","0","1","NT","","0","","","","","",""
"audio-keyboard-response","125","400971","0.0-1.0-1.3-1.110-0.110","null","letters/6.wav","","null","null","n-back-trial","0","1","NT","","0","","","","","",""
"audio-keyboard-response","126","403481","0.0-1.0-1.3-1.111-0.111","939","letters/6.wav","","32","939","n-back-trial","1","1","T","1","","","","","","",""
"audio-keyboard-response","127","405991","0.0-1.0-1.3-1.112-0.112","null","letters/5.wav","","null","null","n-back-trial","0","1","NT","","0","","","","","",""
"audio-keyboard-response","128","408511","0.0-1.0-1.3-1.113-0.113","null","letters/1.wav","","null","null","n-back-trial","0","1","NT","","0","","","","","",""
"audio-keyboard-response","129","411031","0.0-1.0-1.3-1.114-0.114","971","letters/1.wav","","32","971","n-back-trial","1","1","T","1","","","","","","",""
"audio-keyboard-response","130","413533","0.0-1.0-1.3-1.115-0.115","1011","letters/1.wav","","32","1011","n-back-trial","1","1","T","1","","","","","","",""
"audio-keyboard-response","131","416042","0.0-1.0-1.3-1.116-0.116","null","letters/3.wav","","null","null","n-back-trial","0","1","NT","","0","","","","","",""
"audio-keyboard-response","132","418562","0.0-1.0-1.3-1.117-0.117","null","letters/5.wav","","null","null","n-back-trial","0","1","NT","","0","","","","","",""
"audio-keyboard-response","133","421072","0.0-1.0-1.3-1.118-0.118","null","letters/8.wav","","null","null","n-back-trial","0","1","NT","","0","","","","","",""
"audio-keyboard-response","134","423592","0.0-1.0-1.3-1.119-0.119","null","letters/4.wav","","null","null","n-back-trial","0","1","NT","","0","","","","","",""
"audio-keyboard-response","135","426113","0.0-1.0-1.3-1.120-0.120","1061","letters/4.wav","","32","1061","n-back-trial","1","1","T","1","","","","","","",""
"audio-keyboard-response","136","428632","0.0-1.0-1.3-1.121-0.121","null","letters/2.wav","","null","null","n-back-trial","0","1","NT","","0","","","","","",""
"audio-keyboard-response","137","431143","0.0-1.0-1.3-1.122-0.122","null","letters/4.wav","","null","null","n-back-trial","0","1","NT","","0","","","","","",""
"audio-keyboard-response","138","433662","0.0-1.0-1.3-1.123-0.123","1088","letters/4.wav","","32","1088","n-back-trial","1","1","T","1","","","","","","",""
"html-button-response","139","437457","0.0-1.0-1.3-2.3","3794","<p>You may take a short break if you wish.</p><p>Click the button below when you are ready to continue.</p>","0","","","","","","","","","","","","","",""
"html-button-response","140","438721","0.0-1.0-1.4-0.4","1263","<p>You will now complete a <strong>1-back.</strong></p><p>Remember, this means that you should press SPACEBAR every time the sound you hear matches the one presented <strong>1</strong> position(s) previously.</p>","0","","","","","","","","","","","","","",""
"audio-keyboard-response","141","441233","0.0-1.0-1.4-1.124-0.124","null","letters/3.wav","","null","null","n-back-trial","0","1","FIRSTS","","0","","","","","",""
"audio-keyboard-response","142","443743","0.0-1.0-1.4-1.125-0.125","960","letters/3.wav","","32","960","n-back-trial","1","1","T","1","","","","","","",""
"audio-keyboard-response","143","446254","0.0-1.0-1.4-1.126-0.126","null","letters/8.wav","","null","null","n-back-trial","0","1","NT","","0","","","","","",""
"audio-keyboard-response","144","448764","0.0-1.0-1.4-1.127-0.127","null","letters/5.wav","","null","null","n-back-trial","0","1","NT","","0","","","","","",""
"audio-keyboard-response","145","451283","0.0-1.0-1.4-1.128-0.128","null","letters/3.wav","","null","null","n-back-trial","0","1","NT","","0","","","","","",""
"audio-keyboard-response","146","453794","0.0-1.0-1.4-1.129-0.129","null","letters/6.wav","","null","null","n-back-trial","0","1","NT","","0","","","","","",""
"audio-keyboard-response","147","456314","0.0-1.0-1.4-1.130-0.130","null","letters/7.wav","","null","null","n-back-trial","0","1","NT","","0","","","","","",""
"audio-keyboard-response","148","458824","0.0-1.0-1.4-1.131-0.131","null","letters/5.wav","","null","null","n-back-trial","0","1","NT","","0","","","","","",""
"audio-keyboard-response","149","461344","0.0-1.0-1.4-1.132-0.132","null","letters/3.wav","","null","null","n-back-trial","0","1","NT","","0","","","","","",""
"audio-keyboard-response","150","463854","0.0-1.0-1.4-1.133-0.133","981","letters/3.wav","","32","981","n-back-trial","1","1","T","1","","","","","","",""
"audio-keyboard-response","151","466374","0.0-1.0-1.4-1.134-0.134","1029","letters/3.wav","","32","1029","n-back-trial","1","1","T","1","","","","","","",""
"audio-keyboard-response","152","468895","0.0-1.0-1.4-1.135-0.135","null","letters/1.wav","","null","null","n-back-trial","0","1","NT","","0","","","","","",""
"audio-keyboard-response","153","471414","0.0-1.0-1.4-1.136-0.136","null","letters/3.wav","","null","null","n-back-trial","0","1","NT","","0","","","","","",""
"audio-keyboard-response","154","473924","0.0-1.0-1.4-1.137-0.137","null","letters/5.wav","","null","null","n-back-trial","0","1","NT","","0","","","","","",""
"audio-keyboard-response","155","476434","0.0-1.0-1.4-1.138-0.138","null","letters/8.wav","","null","null","n-back-trial","0","1","NT","","0","","","","","",""
"audio-keyboard-response","156","478944","0.0-1.0-1.4-1.139-0.139","1120","letters/8.wav","","32","1120","n-back-trial","1","1","T","1","","","","","","",""
"audio-keyboard-response","157","481464","0.0-1.0-1.4-1.140-0.140","null","letters/5.wav","","null","null","n-back-trial","0","1","NT","","0","","","","","",""
"audio-keyboard-response","158","483985","0.0-1.0-1.4-1.141-0.141","1040","letters/5.wav","","32","1040","n-back-trial","1","1","T","1","","","","","","",""
"audio-keyboard-response","159","486495","0.0-1.0-1.4-1.142-0.142","1080","letters/5.wav","","32","1080","n-back-trial","1","1","T","1","","","","","","",""
"audio-keyboard-response","160","489015","0.0-1.0-1.4-1.143-0.143","null","letters/4.wav","","null","null","n-back-trial","0","1","NT","","0","","","","","",""
"audio-keyboard-response","161","491535","0.0-1.0-1.4-1.144-0.144","null","letters/3.wav","","null","null","n-back-trial","0","1","NT","","0","","","","","",""
"audio-keyboard-response","162","494055","0.0-1.0-1.4-1.145-0.145","null","letters/2.wav","","null","null","n-back-trial","0","1","NT","","0","","","","","",""
"audio-keyboard-response","163","496565","0.0-1.0-1.4-1.146-0.146","null","letters/4.wav","","null","null","n-back-trial","0","1","NT","","0","","","","","",""
"audio-keyboard-response","164","499066","0.0-1.0-1.4-1.147-0.147","981","letters/4.wav","","32","981","n-back-trial","1","1","T","1","","","","","","",""
"audio-keyboard-response","165","501575","0.0-1.0-1.4-1.148-0.148","1032","letters/4.wav","","32","1032","n-back-trial","1","1","T","1","","","","","","",""
"audio-keyboard-response","166","504096","0.0-1.0-1.4-1.149-0.149","null","letters/8.wav","","null","null","n-back-trial","0","1","NT","","0","","","","","",""
"audio-keyboard-response","167","506606","0.0-1.0-1.4-1.150-0.150","null","letters/1.wav","","null","null","n-back-trial","0","1","NT","","0","","","","","",""
"audio-keyboard-response","168","509107","0.0-1.0-1.4-1.151-0.151","null","letters/6.wav","","null","null","n-back-trial","0","1","NT","","0","","","","","",""
"audio-keyboard-response","169","511626","0.0-1.0-1.4-1.152-0.152","null","letters/3.wav","","null","null","n-back-trial","0","1","NT","","0","","","","","",""
"audio-keyboard-response","170","514136","0.0-1.0-1.4-1.153-0.153","968","letters/3.wav","","32","968","n-back-trial","1","1","T","1","","","","","","",""
"audio-keyboard-response","171","516656","0.0-1.0-1.4-1.154-0.154","1000","letters/3.wav","","32","1000","n-back-trial","1","1","T","1","","","","","","",""
"html-button-response","172","519320","0.0-1.0-1.4-2.4","2663","<p>You may take a short break if you wish.</p><p>Click the button below when you are ready to continue.</p>","0","","","","","","","","","","","","","",""
"html-button-response","173","520288","0.0-1.0-1.5-0.5","967","<p>You will now complete a <strong>1-back.</strong></p><p>Remember, this means that you should press SPACEBAR every time the sound you hear matches the one presented <strong>1</strong> position(s) previously.</p>","0","","","","","","","","","","","","","",""
"audio-keyboard-response","174","522796","0.0-1.0-1.5-1.155-0.155","null","letters/1.wav","","null","null","n-back-trial","0","1","FIRSTS","","0","","","","","",""
"audio-keyboard-response","175","525317","0.0-1.0-1.5-1.156-0.156","1120","letters/1.wav","","32","1120","n-back-trial","1","1","T","1","","","","","","",""
"audio-keyboard-response","176","527827","0.0-1.0-1.5-1.157-0.157","null","letters/3.wav","","null","null","n-back-trial","0","1","NT","","0","","","","","",""
"audio-keyboard-response","177","530337","0.0-1.0-1.5-1.158-0.158","null","letters/2.wav","","null","null","n-back-trial","0","1","NT","","0","","","","","",""
"audio-keyboard-response","178","532857","0.0-1.0-1.5-1.159-0.159","949","letters/2.wav","","32","949","n-back-trial","1","1","T","1","","","","","","",""
"audio-keyboard-response","179","535359","0.0-1.0-1.5-1.160-0.160","null","letters/1.wav","","null","null","n-back-trial","0","1","NT","","0","","","","","",""
"audio-keyboard-response","180","537867","0.0-1.0-1.5-1.161-0.161","null","letters/5.wav","","null","null","n-back-trial","0","1","NT","","0","","","","","",""
"audio-keyboard-response","181","540369","0.0-1.0-1.5-1.162-0.162","null","letters/6.wav","","null","null","n-back-trial","0","1","NT","","0","","","","","",""
"audio-keyboard-response","182","542888","0.0-1.0-1.5-1.163-0.163","null","letters/4.wav","","null","null","n-back-trial","0","1","NT","","0","","","","","",""
"audio-keyboard-response","183","545408","0.0-1.0-1.5-1.164-0.164","909","letters/4.wav","","32","909","n-back-trial","1","1","T","1","","","","","","",""
"audio-keyboard-response","184","547917","0.0-1.0-1.5-1.165-0.165","1000","letters/4.wav","","32","1000","n-back-trial","1","1","T","1","","","","","","",""
"audio-keyboard-response","185","550438","0.0-1.0-1.5-1.166-0.166","null","letters/7.wav","","null","null","n-back-trial","0","1","NT","","0","","","","","",""
"audio-keyboard-response","186","552949","0.0-1.0-1.5-1.167-0.167","1072","letters/7.wav","","32","1072","n-back-trial","1","1","T","1","","","","","","",""
"audio-keyboard-response","187","555468","0.0-1.0-1.5-1.168-0.168","null","letters/6.wav","","null","null","n-back-trial","0","1","NT","","0","","","","","",""
"audio-keyboard-response","188","557989","0.0-1.0-1.5-1.169-0.169","null","letters/1.wav","","null","null","n-back-trial","0","1","NT","","0","","","","","",""
"audio-keyboard-response","189","560499","0.0-1.0-1.5-1.170-0.170","949","letters/1.wav","","32","949","n-back-trial","1","1","T","1","","","","","","",""
"audio-keyboard-response","190","563019","0.0-1.0-1.5-1.171-0.171","null","letters/5.wav","","null","null","n-back-trial","0","1","NT","","0","","","","","",""
"audio-keyboard-response","191","565520","0.0-1.0-1.5-1.172-0.172","null","letters/8.wav","","null","null","n-back-trial","0","1","NT","","0","","","","","",""
"audio-keyboard-response","192","568039","0.0-1.0-1.5-1.173-0.173","null","letters/1.wav","","null","null","n-back-trial","0","1","NT","","0","","","","","",""
"audio-keyboard-response","193","570559","0.0-1.0-1.5-1.174-0.174","2080","letters/1.wav","","32","2080","n-back-trial","1","1","T","1","","","","","","",""
"audio-keyboard-response","194","573069","0.0-1.0-1.5-1.175-0.175","null","letters/3.wav","","null","null","n-back-trial","0","1","NT","","0","","","","","",""
"audio-keyboard-response","195","575579","0.0-1.0-1.5-1.176-0.176","1120","letters/3.wav","","32","1120","n-back-trial","1","1","T","1","","","","","","",""
"audio-keyboard-response","196","578081","0.0-1.0-1.5-1.177-0.177","1149","letters/3.wav","","32","1149","n-back-trial","1","1","T","1","","","","","","",""
"audio-keyboard-response","197","580590","0.0-1.0-1.5-1.178-0.178","null","letters/4.wav","","null","null","n-back-trial","0","1","NT","","0","","","","","",""
"audio-keyboard-response","198","583100","0.0-1.0-1.5-1.179-0.179","null","letters/7.wav","","null","null","n-back-trial","0","1","NT","","0","","","","","",""
"audio-keyboard-response","199","585610","0.0-1.0-1.5-1.180-0.180","null","letters/3.wav","","null","null","n-back-trial","0","1","NT","","0","","","","","",""
"audio-keyboard-response","200","588117","0.0-1.0-1.5-1.181-0.181","null","letters/7.wav","","null","null","n-back-trial","0","1","NT","","0","","","","","",""
"audio-keyboard-response","201","590620","0.0-1.0-1.5-1.182-0.182","null","letters/8.wav","","null","null","n-back-trial","0","1","NT","","0","","","","","",""
"audio-keyboard-response","202","593140","0.0-1.0-1.5-1.183-0.183","949","letters/8.wav","","32","949","n-back-trial","1","1","T","1","","","","","","",""
"audio-keyboard-response","203","595650","0.0-1.0-1.5-1.184-0.184","null","letters/6.wav","","null","null","n-back-trial","0","1","NT","","0","","","","","",""
"audio-keyboard-response","204","598152","0.0-1.0-1.5-1.185-0.185","null","letters/2.wav","","null","null","n-back-trial","0","1","NT","","0","","","","","",""
"html-button-response","205","602009","0.0-1.0-1.5-2.5","3855","<p>You may take a short break if you wish.</p><p>Click the button below when you are ready to continue.</p>","0","","","","","","","","","","","","","",""
"html-button-response","206","603345","0.0-1.0-1.6-0.6","1335","<p>You will now complete a <strong>1-back.</strong></p><p>Remember, this means that you should press SPACEBAR every time the sound you hear matches the one presented <strong>1</strong> position(s) previously.</p>","0","","","","","","","","","","","","","",""
"audio-keyboard-response","207","605851","0.0-1.0-1.6-1.186-0.186","null","letters/4.wav","","null","null","n-back-trial","0","1","FIRSTS","","0","","","","","",""
"audio-keyboard-response","208","608361","0.0-1.0-1.6-1.187-0.187","null","letters/8.wav","","null","null","n-back-trial","0","1","NT","","0","","","","","",""
"audio-keyboard-response","209","610871","0.0-1.0-1.6-1.188-0.188","1011","letters/8.wav","","32","1011","n-back-trial","1","1","T","1","","","","","","",""
"audio-keyboard-response","210","613381","0.0-1.0-1.6-1.189-0.189","928","letters/8.wav","","32","928","n-back-trial","1","1","T","1","","","","","","",""
"audio-keyboard-response","211","615891","0.0-1.0-1.6-1.190-0.190","null","letters/2.wav","","null","null","n-back-trial","0","1","NT","","0","","","","","",""
"audio-keyboard-response","212","618411","0.0-1.0-1.6-1.191-0.191","null","letters/6.wav","","null","null","n-back-trial","0","1","NT","","0","","","","","",""
"audio-keyboard-response","213","620931","0.0-1.0-1.6-1.192-0.192","1091","letters/6.wav","","32","1091","n-back-trial","1","1","T","1","","","","","","",""
"audio-keyboard-response","214","623441","0.0-1.0-1.6-1.193-0.193","1019","letters/6.wav","","32","1019","n-back-trial","1","1","T","1","","","","","","",""
"audio-keyboard-response","215","625952","0.0-1.0-1.6-1.194-0.194","null","letters/1.wav","","null","null","n-back-trial","0","1","NT","","0","","","","","",""
"audio-keyboard-response","216","628472","0.0-1.0-1.6-1.195-0.195","null","letters/3.wav","","null","null","n-back-trial","0","1","NT","","0","","","","","",""
"audio-keyboard-response","217","630982","0.0-1.0-1.6-1.196-0.196","808","letters/3.wav","","32","808","n-back-trial","1","1","T","1","","","","","","",""
"audio-keyboard-response","218","633502","0.0-1.0-1.6-1.197-0.197","null","letters/8.wav","","null","null","n-back-trial","0","1","NT","","0","","","","","",""
"audio-keyboard-response","219","636022","0.0-1.0-1.6-1.198-0.198","null","letters/7.wav","","null","null","n-back-trial","0","1","NT","","0","","","","","",""
"audio-keyboard-response","220","638533","0.0-1.0-1.6-1.199-0.199","931","letters/7.wav","","32","931","n-back-trial","1","1","T","1","","","","","","",""
"audio-keyboard-response","221","641034","0.0-1.0-1.6-1.200-0.200","960","letters/7.wav","","32","960","n-back-trial","1","1","T","1","","","","","","",""
"audio-keyboard-response","222","643542","0.0-1.0-1.6-1.201-0.201","null","letters/3.wav","","null","null","n-back-trial","0","1","NT","","0","","","","","",""
"audio-keyboard-response","223","646063","0.0-1.0-1.6-1.202-0.202","null","letters/4.wav","","null","null","n-back-trial","0","1","NT","","0","","","","","",""
"audio-keyboard-response","224","648573","0.0-1.0-1.6-1.203-0.203","null","letters/8.wav","","null","null","n-back-trial","0","1","NT","","0","","","","","",""
"audio-keyboard-response","225","651082","0.0-1.0-1.6-1.204-0.204","1040","letters/8.wav","","32","1040","n-back-trial","1","1","T","1","","","","","","",""
"audio-keyboard-response","226","653593","0.0-1.0-1.6-1.205-0.205","null","letters/2.wav","","null","null","n-back-trial","0","1","NT","","0","","","","","",""
"audio-keyboard-response","227","656113","0.0-1.0-1.6-1.206-0.206","912","letters/2.wav","","32","912","n-back-trial","1","1","T","1","","","","","","",""
"audio-keyboard-response","228","658623","0.0-1.0-1.6-1.207-0.207","null","letters/4.wav","","null","null","n-back-trial","0","1","NT","","0","","","","","",""
"audio-keyboard-response","229","661133","0.0-1.0-1.6-1.208-0.208","null","letters/1.wav","","null","null","n-back-trial","0","1","NT","","0","","","","","",""
"audio-keyboard-response","230","663654","0.0-1.0-1.6-1.209-0.209","1109","letters/1.wav","","32","1109","n-back-trial","1","1","T","1","","","","","","",""
"audio-keyboard-response","231","666174","0.0-1.0-1.6-1.210-0.210","null","letters/2.wav","","null","null","n-back-trial","0","1","NT","","0","","","","","",""
"audio-keyboard-response","232","668684","0.0-1.0-1.6-1.211-0.211","null","letters/6.wav","","null","null","n-back-trial","0","1","NT","","0","","","","","",""
"audio-keyboard-response","233","671194","0.0-1.0-1.6-1.212-0.212","null","letters/5.wav","","null","null","n-back-trial","0","1","NT","","0","","","","","",""
"audio-keyboard-response","234","673714","0.0-1.0-1.6-1.213-0.213","null","letters/2.wav","","null","null","n-back-trial","0","1","NT","","0","","","","","",""
"audio-keyboard-response","235","676224","0.0-1.0-1.6-1.214-0.214","null","letters/3.wav","","null","null","n-back-trial","0","1","NT","","0","","","","","",""
"audio-keyboard-response","236","678734","0.0-1.0-1.6-1.215-0.215","null","letters/7.wav","","null","null","n-back-trial","0","1","NT","","0","","","","","",""
"audio-keyboard-response","237","681236","0.0-1.0-1.6-1.216-0.216","null","letters/3.wav","","null","null","n-back-trial","0","1","NT","","0","","","","","",""
"html-button-response","238","684576","0.0-1.0-1.6-2.6","3339","<p>You may take a short break if you wish.</p><p>Click the button below when you are ready to continue.</p>","0","","","","","","","","","","","","","",""
"html-button-response","239","685601","0.0-1.0-1.7-0.7","1023","<p>You will now complete a <strong>1-back.</strong></p><p>Remember, this means that you should press SPACEBAR every time the sound you hear matches the one presented <strong>1</strong> position(s) previously.</p>","0","","","","","","","","","","","","","",""
"audio-keyboard-response","240","688115","0.0-1.0-1.7-1.217-0.217","null","letters/7.wav","","null","null","n-back-trial","0","1","FIRSTS","","0","","","","","",""
"audio-keyboard-response","241","690625","0.0-1.0-1.7-1.218-0.218","null","letters/2.wav","","null","null","n-back-trial","0","1","NT","","0","","","","","",""
"audio-keyboard-response","242","693142","0.0-1.0-1.7-1.219-0.219","null","letters/4.wav","","null","null","n-back-trial","0","1","NT","","0","","","","","",""
"audio-keyboard-response","243","695645","0.0-1.0-1.7-1.220-0.220","null","letters/5.wav","","null","null","n-back-trial","0","1","NT","","0","","","","","",""
"audio-keyboard-response","244","698165","0.0-1.0-1.7-1.221-0.221","1360","letters/5.wav","","32","1360","n-back-trial","1","1","T","1","","","","","","",""
"audio-keyboard-response","245","700686","0.0-1.0-1.7-1.222-0.222","null","letters/6.wav","","null","null","n-back-trial","0","1","NT","","0","","","","","",""
"audio-keyboard-response","246","703205","0.0-1.0-1.7-1.223-0.223","1171","letters/6.wav","","32","1171","n-back-trial","1","1","T","1","","","","","","",""
"audio-keyboard-response","247","705726","0.0-1.0-1.7-1.224-0.224","1211","letters/6.wav","","32","1211","n-back-trial","1","1","T","1","","","","","","",""
"audio-keyboard-response","248","708236","0.0-1.0-1.7-1.225-0.225","1101","letters/6.wav","","32","1101","n-back-trial","1","1","T","1","","","","","","",""
"audio-keyboard-response","249","710746","0.0-1.0-1.7-1.226-0.226","1040","letters/6.wav","","32","1040","n-back-trial","1","1","T","1","","","","","","",""
"audio-keyboard-response","250","713256","0.0-1.0-1.7-1.227-0.227","null","letters/7.wav","","null","null","n-back-trial","0","1","NT","","0","","","","","",""
"audio-keyboard-response","251","715776","0.0-1.0-1.7-1.228-0.228","null","letters/1.wav","","null","null","n-back-trial","0","1","NT","","0","","","","","",""
"audio-keyboard-response","252","718296","0.0-1.0-1.7-1.229-0.229","1149","letters/1.wav","","32","1149","n-back-trial","1","1","T","1","","","","","","",""
"audio-keyboard-response","253","720806","0.0-1.0-1.7-1.230-0.230","null","letters/5.wav","","null","null","n-back-trial","0","1","NT","","0","","","","","",""
"audio-keyboard-response","254","723326","0.0-1.0-1.7-1.231-0.231","null","letters/1.wav","","null","null","n-back-trial","0","1","NT","","0","","","","","",""
"audio-keyboard-response","255","725837","0.0-1.0-1.7-1.232-0.232","null","letters/6.wav","","null","null","n-back-trial","0","1","NT","","0","","","","","",""
"audio-keyboard-response","256","728347","0.0-1.0-1.7-1.233-0.233","null","letters/4.wav","","null","null","n-back-trial","0","1","NT","","0","","","","","",""
"audio-keyboard-response","257","730867","0.0-1.0-1.7-1.234-0.234","null","letters/1.wav","","null","null","n-back-trial","0","1","NT","","0","","","","","",""
"audio-keyboard-response","258","733377","0.0-1.0-1.7-1.235-0.235","null","letters/5.wav","","null","null","n-back-trial","0","1","NT","","0","","","","","",""
"audio-keyboard-response","259","735897","0.0-1.0-1.7-1.236-0.236","989","letters/5.wav","","32","989","n-back-trial","1","1","T","1","","","","","","",""
"audio-keyboard-response","260","738417","0.0-1.0-1.7-1.237-0.237","1011","letters/5.wav","","32","1011","n-back-trial","1","1","T","1","","","","","","",""
"audio-keyboard-response","261","740937","0.0-1.0-1.7-1.238-0.238","null","letters/8.wav","","null","null","n-back-trial","0","1","NT","","0","","","","","",""
"audio-keyboard-response","262","743439","0.0-1.0-1.7-1.239-0.239","979","letters/8.wav","","32","979","n-back-trial","1","1","T","1","","","","","","",""
"audio-keyboard-response","263","745957","0.0-1.0-1.7-1.240-0.240","null","letters/3.wav","","null","null","n-back-trial","0","1","NT","","0","","","","","",""
"audio-keyboard-response","264","748467","0.0-1.0-1.7-1.241-0.241","null","letters/2.wav","","null","null","n-back-trial","0","1","NT","","0","","","","","",""
"audio-keyboard-response","265","750978","0.0-1.0-1.7-1.242-0.242","null","letters/8.wav","","null","null","n-back-trial","0","1","NT","","0","","","","","",""
"audio-keyboard-response","266","753497","0.0-1.0-1.7-1.243-0.243","2320","letters/8.wav","","32","2320","n-back-trial","1","1","T","1","","","","","","",""
"audio-keyboard-response","267","756018","0.0-1.0-1.7-1.244-0.244","null","letters/5.wav","","null","null","n-back-trial","0","1","NT","","0","","","","","",""
"audio-keyboard-response","268","758538","0.0-1.0-1.7-1.245-0.245","null","letters/7.wav","","null","null","n-back-trial","0","1","NT","","0","","","","","",""
"audio-keyboard-response","269","761058","0.0-1.0-1.7-1.246-0.246","null","letters/1.wav","","null","null","n-back-trial","0","1","NT","","0","","","","","",""
"audio-keyboard-response","270","763560","0.0-1.0-1.7-1.247-0.247","null","letters/8.wav","","null","null","n-back-trial","0","1","NT","","0","","","","","",""
"html-button-response","271","766520","0.0-1.0-1.7-2.7","2960","<p>You may take a short break if you wish.</p><p>Click the button below when you are ready to continue.</p>","0","","","","","","","","","","","","","",""
"html-button-response","272","767496","0.0-1.0-1.8-0.8","975","<p>You will now complete a <strong>1-back.</strong></p><p>Remember, this means that you should press SPACEBAR every time the sound you hear matches the one presented <strong>1</strong> position(s) previously.</p>","0","","","","","","","","","","","","","",""
"audio-keyboard-response","273","769998","0.0-1.0-1.8-1.248-0.248","null","letters/4.wav","","null","null","n-back-trial","0","1","FIRSTS","","0","","","","","",""
"audio-keyboard-response","274","772518","0.0-1.0-1.8-1.249-0.249","null","letters/4.wav","","null","null","n-back-trial","0","1","T","0","","","","","","",""
"audio-keyboard-response","275","775039","0.0-1.0-1.8-1.250-0.250","null","letters/6.wav","","null","null","n-back-trial","0","1","NT","","0","","","","","",""
"audio-keyboard-response","276","777559","0.0-1.0-1.8-1.251-0.251","1008","letters/6.wav","","32","1008","n-back-trial","1","1","T","1","","","","","","",""
"audio-keyboard-response","277","780079","0.0-1.0-1.8-1.252-0.252","null","letters/5.wav","","null","null","n-back-trial","0","1","NT","","0","","","","","",""
"audio-keyboard-response","278","782589","0.0-1.0-1.8-1.253-0.253","861","letters/5.wav","","32","861","n-back-trial","1","1","T","1","","","","","","",""
"audio-keyboard-response","279","785099","0.0-1.0-1.8-1.254-0.254","null","letters/3.wav","","null","null","n-back-trial","0","1","NT","","0","","","","","",""
"audio-keyboard-response","280","787619","0.0-1.0-1.8-1.255-0.255","null","letters/1.wav","","null","null","n-back-trial","0","1","NT","","0","","","","","",""
"audio-keyboard-response","281","790129","0.0-1.0-1.8-1.256-0.256","1069","letters/1.wav","","32","1069","n-back-trial","1","1","T","1","","","","","","",""
"audio-keyboard-response","282","792639","0.0-1.0-1.8-1.257-0.257","null","letters/6.wav","","null","null","n-back-trial","0","1","NT","","0","","","","","",""
"audio-keyboard-response","283","795160","0.0-1.0-1.8-1.258-0.258","null","letters/8.wav","","null","null","n-back-trial","0","1","NT","","0","","","","","",""
"audio-keyboard-response","284","797670","0.0-1.0-1.8-1.259-0.259","null","letters/5.wav","","null","null","n-back-trial","0","1","NT","","0","","","","","",""
"audio-keyboard-response","285","800180","0.0-1.0-1.8-1.260-0.260","920","letters/5.wav","","32","920","n-back-trial","1","1","T","1","","","","","","",""
"audio-keyboard-response","286","802697","0.0-1.0-1.8-1.261-0.261","null","letters/7.wav","","null","null","n-back-trial","0","1","NT","","0","","","","","",""
"audio-keyboard-response","287","805200","0.0-1.0-1.8-1.262-0.262","null","letters/2.wav","","null","null","n-back-trial","0","1","NT","","0","","","","","",""
"audio-keyboard-response","288","807720","0.0-1.0-1.8-1.263-0.263","899","letters/2.wav","","32","899","n-back-trial","1","1","T","1","","","","","","",""
"audio-keyboard-response","289","810240","0.0-1.0-1.8-1.264-0.264","null","letters/6.wav","","null","null","n-back-trial","0","1","NT","","0","","","","","",""
"audio-keyboard-response","290","812761","0.0-1.0-1.8-1.265-0.265","null","letters/3.wav","","null","null","n-back-trial","0","1","NT","","0","","","","","",""
"audio-keyboard-response","291","815262","0.0-1.0-1.8-1.266-0.266","901","letters/3.wav","","32","901","n-back-trial","1","1","T","1","","","","","","",""
"audio-keyboard-response","292","817771","0.0-1.0-1.8-1.267-0.267","null","letters/2.wav","","null","null","n-back-trial","0","1","NT","","0","","","","","",""
"audio-keyboard-response","293","820291","0.0-1.0-1.8-1.268-0.268","851","letters/2.wav","","32","851","n-back-trial","1","1","T","1","","","","","","",""
"audio-keyboard-response","294","822811","0.0-1.0-1.8-1.269-0.269","null","letters/6.wav","","null","null","n-back-trial","0","1","NT","","0","","","","","",""
"audio-keyboard-response","295","825331","0.0-1.0-1.8-1.270-0.270","null","letters/2.wav","","null","null","n-back-trial","0","1","NT","","0","","","","","",""
"audio-keyboard-response","296","827842","0.0-1.0-1.8-1.271-0.271","851","letters/2.wav","","32","851","n-back-trial","1","1","T","1","","","","","","",""
"audio-keyboard-response","297","830362","0.0-1.0-1.8-1.272-0.272","null","letters/1.wav","","null","null","n-back-trial","0","1","NT","","0","","","","","",""
"audio-keyboard-response","298","832879","0.0-1.0-1.8-1.273-0.273","null","letters/8.wav","","null","null","n-back-trial","0","1","NT","","0","","","","","",""
"audio-keyboard-response","299","835392","0.0-1.0-1.8-1.274-0.274","null","letters/4.wav","","null","null","n-back-trial","0","1","NT","","0","","","","","",""
"audio-keyboard-response","300","837902","0.0-1.0-1.8-1.275-0.275","null","letters/6.wav","","null","null","n-back-trial","0","1","NT","","0","","","","","",""
"audio-keyboard-response","301","840412","0.0-1.0-1.8-1.276-0.276","null","letters/4.wav","","null","null","n-back-trial","0","1","NT","","0","","","","","",""
"audio-keyboard-response","302","842932","0.0-1.0-1.8-1.277-0.277","null","letters/2.wav","","null","null","n-back-trial","0","1","NT","","0","","","","","",""
"audio-keyboard-response","303","845435","0.0-1.0-1.8-1.278-0.278","1280","letters/2.wav","","32","1280","n-back-trial","1","1","T","1","","","","","","",""
"html-button-response","304","848056","0.0-1.0-1.8-2.8","2620","<p>You may take a short break if you wish.</p><p>Click the button below when you are ready to continue.</p>","0","","","","","","","","","","","","","",""
"html-button-response","305","849584","0.0-1.0-1.9-0.9","1527","<p>You will now complete a <strong>1-back.</strong></p><p>Remember, this means that you should press SPACEBAR every time the sound you hear matches the one presented <strong>1</strong> position(s) previously.</p>","0","","","","","","","","","","","","","",""
"audio-keyboard-response","306","852103","0.0-1.0-1.9-1.279-0.279","null","letters/1.wav","","null","null","n-back-trial","0","1","FIRSTS","","0","","","","","",""
"audio-keyboard-response","307","854622","0.0-1.0-1.9-1.280-0.280","null","letters/3.wav","","null","null","n-back-trial","0","1","NT","","0","","","","","",""
"audio-keyboard-response","308","857142","0.0-1.0-1.9-1.281-0.281","null","letters/2.wav","","null","null","n-back-trial","0","1","NT","","0","","","","","",""
"audio-keyboard-response","309","859653","0.0-1.0-1.9-1.282-0.282","989","letters/2.wav","","32","989","n-back-trial","1","1","T","1","","","","","","",""
"audio-keyboard-response","310","862173","0.0-1.0-1.9-1.283-0.283","null","letters/3.wav","","null","null","n-back-trial","0","1","NT","","0","","","","","",""
"audio-keyboard-response","311","864693","0.0-1.0-1.9-1.284-0.284","1211","letters/3.wav","","32","1211","n-back-trial","1","1","T","1","","","","","","",""
"audio-keyboard-response","312","867194","0.0-1.0-1.9-1.285-0.285","1101","letters/3.wav","","32","1101","n-back-trial","1","1","T","1","","","","","","",""
"audio-keyboard-response","313","869714","0.0-1.0-1.9-1.286-0.286","1168","letters/3.wav","","32","1168","n-back-trial","1","1","T","1","","","","","","",""
"audio-keyboard-response","314","872223","0.0-1.0-1.9-1.287-0.287","null","letters/7.wav","","null","null","n-back-trial","0","1","NT","","0","","","","","",""
"audio-keyboard-response","315","874743","0.0-1.0-1.9-1.288-0.288","null","letters/4.wav","","null","null","n-back-trial","0","1","NT","","0","","","","","",""
"audio-keyboard-response","316","877254","0.0-1.0-1.9-1.289-0.289","1040","letters/4.wav","","32","1040","n-back-trial","1","1","T","1","","","","","","",""
"audio-keyboard-response","317","879774","0.0-1.0-1.9-1.290-0.290","1301","letters/4.wav","","32","1301","n-back-trial","1","1","T","1","","","","","","",""
"audio-keyboard-response","318","882294","0.0-1.0-1.9-1.291-0.291","1021","letters/4.wav","","32","1021","n-back-trial","1","1","T","1","","","","","","",""
"audio-keyboard-response","319","884814","0.0-1.0-1.9-1.292-0.292","null","letters/7.wav","","null","null","n-back-trial","0","1","NT","","0","","","","","",""
"audio-keyboard-response","320","887324","0.0-1.0-1.9-1.293-0.293","null","letters/5.wav","","null","null","n-back-trial","0","1","NT","","0","","","","","",""
"audio-keyboard-response","321","889834","0.0-1.0-1.9-1.294-0.294","null","letters/1.wav","","null","null","n-back-trial","0","1","NT","","0","","","","","",""
"audio-keyboard-response","322","892345","0.0-1.0-1.9-1.295-0.295","null","letters/8.wav","","null","null","n-back-trial","0","1","NT","","0","","","","","",""
"audio-keyboard-response","323","894865","0.0-1.0-1.9-1.296-0.296","null","letters/6.wav","","null","null","n-back-trial","0","1","NT","","0","","","","","",""
"audio-keyboard-response","324","897385","0.0-1.0-1.9-1.297-0.297","1069","letters/6.wav","","32","1069","n-back-trial","1","1","T","1","","","","","","",""
"audio-keyboard-response","325","899895","0.0-1.0-1.9-1.298-0.298","null","letters/1.wav","","null","null","n-back-trial","0","1","NT","","0","","","","","",""
"audio-keyboard-response","326","902415","0.0-1.0-1.9-1.299-0.299","null","letters/7.wav","","null","null","n-back-trial","0","1","NT","","0","","","","","",""
"audio-keyboard-response","327","904935","0.0-1.0-1.9-1.300-0.300","null","letters/5.wav","","null","null","n-back-trial","0","1","NT","","0","","","","","",""
"audio-keyboard-response","328","907455","0.0-1.0-1.9-1.301-0.301","1480","letters/5.wav","","32","1480","n-back-trial","1","1","T","1","","","","","","",""
"audio-keyboard-response","329","909975","0.0-1.0-1.9-1.302-0.302","null","letters/7.wav","","null","null","n-back-trial","0","1","NT","","0","","","","","",""
"audio-keyboard-response","330","912496","0.0-1.0-1.9-1.303-0.303","null","letters/5.wav","","null","null","n-back-trial","0","1","NT","","0","","","","","",""
"audio-keyboard-response","331","915015","0.0-1.0-1.9-1.304-0.304","null","letters/2.wav","","null","null","n-back-trial","0","1","NT","","0","","","","","",""
"audio-keyboard-response","332","917536","0.0-1.0-1.9-1.305-0.305","1051","letters/2.wav","","32","1051","n-back-trial","1","1","T","1","","","","","","",""
"audio-keyboard-response","333","920056","0.0-1.0-1.9-1.306-0.306","null","letters/4.wav","","null","null","n-back-trial","0","1","NT","","0","","","","","",""
"audio-keyboard-response","334","922576","0.0-1.0-1.9-1.307-0.307","null","letters/1.wav","","null","null","n-back-trial","0","1","NT","","0","","","","","",""
"audio-keyboard-response","335","925094","0.0-1.0-1.9-1.308-0.308","null","letters/8.wav","","null","null","n-back-trial","0","1","NT","","0","","","","","",""
"audio-keyboard-response","336","927596","0.0-1.0-1.9-1.309-0.309","null","letters/6.wav","","null","null","n-back-trial","0","1","NT","","0","","","","","",""
"html-button-response","337","930800","0.0-1.0-1.9-2.9","3203","<p>You may take a short break if you wish.</p><p>Click the button below when you are ready to continue.</p>","0","","","","","","","","","","","","","",""
"html-button-response","338","933272","0.0-1.0-2.0","2471","<p>Thank you for your responses.</p><p>This concludes the auditory memory task.</p>","0","","","ANB-SUMMARY","","","","","","99","0","0","0","0","0"
