"trial_type","trial_index","time_elapsed","internal_node_id","subject","rt","stimulus","key_press","responses","word","answer"
"pavlovia","0","6","0.0-0.0","bzb5hmc2ggk","","","","","",""
"html-keyboard-response","1","17039","0.0-1.0","bzb5hmc2ggk","17029.59999999986","<p>Welcome to the experiment. In the first part of the study you will hear a series of words. Please listen carefully to each word.</p><p>(Press any key to continue.)</p>","32","","",""
"html-keyboard-response","2","35508","0.0-2.0","bzb5hmc2ggk","17952","<p>It is crucial that you pay attention to each word as you will be asked, after a short pause, to type the word that you heard. You will know when to begin typing when you see a text box on the screen. After typing the word that you heard, press Enter to proceed.</p><p>(Press any key to continue)</p>","32","","",""
"html-keyboard-response","3","52132","0.0-3.0","bzb5hmc2ggk","16111.800000000047","<p>You will need to listen carefully to each word as they are difficult to understand. For this reason, please be as attentive as possible to each word.</p><p>When you are ready, press any key to begin the experiment.</p>","32","","",""
"html-keyboard-response","4","54163","0.0-4.0","bzb5hmc2ggk","null","<div id=""countdown"">***</div>","null","","",""
"audio-keyboard-response","5","54583","0.0-5.0","bzb5hmc2ggk","null","perceptual_learning_stimuli/t1/r_meek.wav","null","","",""
"survey-text","6","76459","0.0-6.0","bzb5hmc2ggk","21862.40000000014","","","{""Q0"":""oink""}","meek","oink"
"html-keyboard-response","7","78982","0.0-7.0","bzb5hmc2ggk","null","<div id=""countdown"">***</div>","null","","",""
"audio-keyboard-response","8","79354","0.0-8.0","bzb5hmc2ggk","null","perceptual_learning_stimuli/t1/r_clog.wav","null","","",""
"survey-text","9","87691","0.0-9.0","bzb5hmc2ggk","8333.800000000047","","","{""Q0"":""clunk""}","clog","clunk"
"html-keyboard-response","10","90203","0.0-10.0","bzb5hmc2ggk","null","<div id=""countdown"">***</div>","null","","",""
"audio-keyboard-response","11","90534","0.0-11.0","bzb5hmc2ggk","null","perceptual_learning_stimuli/t1/r_quip.wav","null","","",""
"survey-text","12","96123","0.0-12.0","bzb5hmc2ggk","5585.5","","","{""Q0"":""drip""}","quip","drip"
"html-keyboard-response","13","98663","0.0-13.0","bzb5hmc2ggk","null","<div id=""countdown"">***</div>","null","","",""
"audio-keyboard-response","14","99005","0.0-14.0","bzb5hmc2ggk","null","perceptual_learning_stimuli/t1/r_book.wav","null","","",""
"survey-text","15","103675","0.0-15.0","bzb5hmc2ggk","4666.800000000047","","","{""Q0"":""bit""}","book","bit"
"html-keyboard-response","16","106204","0.0-16.0","bzb5hmc2ggk","null","<div id=""countdown"">***</div>","null","","",""
"audio-keyboard-response","17","106505","0.0-17.0","bzb5hmc2ggk","null","perceptual_learning_stimuli/t1/r_deed.wav","null","","",""
"survey-text","18","111515","0.0-18.0","bzb5hmc2ggk","5006.700000000186","","","{""Q0"":""deed""}","deed","deed"
"html-keyboard-response","19","114044","0.0-19.0","bzb5hmc2ggk","null","<div id=""countdown"">***</div>","null","","",""
"audio-keyboard-response","20","114375","0.0-20.0","bzb5hmc2ggk","null","perceptual_learning_stimuli/t1/r_hock.wav","null","","",""
"survey-text","21","119499","0.0-21.0","bzb5hmc2ggk","5120.300000000047","","","{""Q0"":""cluck""}","hock","cluck"
"html-keyboard-response","22","122024","0.0-22.0","bzb5hmc2ggk","null","<div id=""countdown"">***</div>","null","","",""
"audio-keyboard-response","23","122196","0.0-23.0","bzb5hmc2ggk","null","perceptual_learning_stimuli/t1/r_eat.wav","null","","",""
"survey-text","24","126370","0.0-24.0","bzb5hmc2ggk","4171.899999999907","","","{""Q0"":""eat""}","eat","eat"
"html-keyboard-response","25","128895","0.0-25.0","bzb5hmc2ggk","null","<div id=""countdown"">***</div>","null","","",""
"audio-keyboard-response","26","129256","0.0-26.0","bzb5hmc2ggk","null","perceptual_learning_stimuli/t1/r_club.wav","null","","",""
"survey-text","27","133555","0.0-27.0","bzb5hmc2ggk","4295.5","","","{""Q0"":""club""}","club","club"
"html-keyboard-response","28","136086","0.0-28.0","bzb5hmc2ggk","null","<div id=""countdown"">***</div>","null","","",""
"audio-keyboard-response","29","136417","0.0-29.0","bzb5hmc2ggk","null","perceptual_learning_stimuli/t1/r_beam.wav","null","","",""
"survey-text","30","139907","0.0-30.0","bzb5hmc2ggk","3487.100000000093","","","{""Q0"":""go""}","beam","go"
"html-keyboard-response","31","142436","0.0-31.0","bzb5hmc2ggk","null","<div id=""countdown"">***</div>","null","","",""
"audio-keyboard-response","32","142807","0.0-32.0","bzb5hmc2ggk","null","perceptual_learning_stimuli/t1/r_bait.wav","null","","",""
"survey-text","33","146723","0.0-33.0","bzb5hmc2ggk","3912.6999999999534","","","{""Q0"":""bite""}","bait","bite"
"html-keyboard-response","34","149256","0.0-34.0","bzb5hmc2ggk","null","<div id=""countdown"">***</div>","null","","",""
"audio-keyboard-response","35","149457","0.0-35.0","bzb5hmc2ggk","null","perceptual_learning_stimuli/t1/r_pot.wav","null","","",""
"survey-text","36","153643","0.0-36.0","bzb5hmc2ggk","4182.600000000093","","","{""Q0"":""cut""}","pot","cut"
"html-keyboard-response","37","156166","0.0-37.0","bzb5hmc2ggk","null","<div id=""countdown"">***</div>","null","","",""
"audio-keyboard-response","38","156417","0.0-38.0","bzb5hmc2ggk","null","perceptual_learning_stimuli/t1/r_cup.wav","null","","",""
"survey-text","39","160322","0.0-39.0","bzb5hmc2ggk","3902.1999999999534","","","{""Q0"":""cup""}","cup","cup"
"html-keyboard-response","40","162846","0.0-40.0","bzb5hmc2ggk","null","<div id=""countdown"">***</div>","null","","",""
"audio-keyboard-response","41","163308","0.0-41.0","bzb5hmc2ggk","null","perceptual_learning_stimuli/t1/r_speed.wav","null","","",""
"survey-text","42","169234","0.0-42.0","bzb5hmc2ggk","5923.800000000047","","","{""Q0"":""squid""}","speed","squid"
"html-keyboard-response","43","171739","0.0-43.0","bzb5hmc2ggk","null","<div id=""countdown"">***</div>","null","","",""
"audio-keyboard-response","44","172048","0.0-44.0","bzb5hmc2ggk","null","perceptual_learning_stimuli/t1/r_bat.wav","null","","",""
"survey-text","45","176067","0.0-45.0","bzb5hmc2ggk","4015.600000000093","","","{""Q0"":""but""}","bat","but"
"html-keyboard-response","46","178607","0.0-46.0","bzb5hmc2ggk","null","<div id=""countdown"">***</div>","null","","",""
"audio-keyboard-response","47","178998","0.0-47.0","bzb5hmc2ggk","null","perceptual_learning_stimuli/t1/r_dump.wav","null","","",""
"survey-text","48","190570","0.0-48.0","bzb5hmc2ggk","11569","","","{""Q0"":""bike""}","dump","bike"
"html-keyboard-response","49","193079","0.0-49.0","bzb5hmc2ggk","null","<div id=""countdown"">***</div>","null","","",""
"audio-keyboard-response","50","193339","0.0-50.0","bzb5hmc2ggk","null","perceptual_learning_stimuli/t1/r_tuck.wav","null","","",""
"survey-text","51","197434","0.0-51.0","bzb5hmc2ggk","4092.2999999998137","","","{""Q0"":""touch""}","tuck","touch"
"html-keyboard-response","52","199958","0.0-52.0","bzb5hmc2ggk","null","<div id=""countdown"">***</div>","null","","",""
"audio-keyboard-response","53","200399","0.0-53.0","bzb5hmc2ggk","null","perceptual_learning_stimuli/t1/r_stock.wav","null","","",""
"survey-text","54","207778","0.0-54.0","bzb5hmc2ggk","7377","","","{""Q0"":""stat""}","stock","stat"
"html-keyboard-response","55","210299","0.0-55.0","bzb5hmc2ggk","null","<div id=""countdown"">***</div>","null","","",""
"audio-keyboard-response","56","210580","0.0-56.0","bzb5hmc2ggk","null","perceptual_learning_stimuli/t1/r_peek.wav","null","","",""
"survey-text","57","215330","0.0-57.0","bzb5hmc2ggk","4747.5","","","{""Q0"":""keep""}","peek","keep"
"html-keyboard-response","58","217859","0.0-58.0","bzb5hmc2ggk","null","<div id=""countdown"">***</div>","null","","",""
"audio-keyboard-response","59","218280","0.0-59.0","bzb5hmc2ggk","null","perceptual_learning_stimuli/t1/r_sift.wav","null","","",""
"survey-text","60","225955","0.0-60.0","bzb5hmc2ggk","7670.899999999907","","","{""Q0"":""sit""}","sift","sit"
"html-keyboard-response","61","228470","0.0-61.0","bzb5hmc2ggk","null","<div id=""countdown"">***</div>","null","","",""
"audio-keyboard-response","62","228871","0.0-62.0","bzb5hmc2ggk","null","perceptual_learning_stimuli/t1/r_bleat.wav","null","","",""
"survey-text","63","248227","0.0-63.0","bzb5hmc2ggk","19352.399999999907","","","{""Q0"":""get""}","bleat","get"
"html-keyboard-response","64","250751","0.0-64.0","bzb5hmc2ggk","null","<div id=""countdown"">***</div>","null","","",""
"audio-keyboard-response","65","251042","0.0-65.0","bzb5hmc2ggk","null","perceptual_learning_stimuli/t1/r_neck.wav","null","","",""
"survey-text","66","255827","0.0-66.0","bzb5hmc2ggk","4781.800000000047","","","{""Q0"":""night""}","neck","night"
"html-keyboard-response","67","258341","0.0-67.0","bzb5hmc2ggk","null","<div id=""countdown"">***</div>","null","","",""
"audio-keyboard-response","68","258622","0.0-68.0","bzb5hmc2ggk","null","perceptual_learning_stimuli/t1/r_nook.wav","null","","",""
"survey-text","69","266019","0.0-69.0","bzb5hmc2ggk","7392.899999999907","","","{""Q0"":""night""}","nook","night"
"html-keyboard-response","70","268552","0.0-70.0","bzb5hmc2ggk","null","<div id=""countdown"">***</div>","null","","",""
"audio-keyboard-response","71","268903","0.0-71.0","bzb5hmc2ggk","null","perceptual_learning_stimuli/t1/r_gap.wav","null","","",""
"survey-text","72","275555","0.0-72.0","bzb5hmc2ggk","6648.59999999986","","","{""Q0"":""got""}","gap","got"
"html-keyboard-response","73","278082","0.0-73.0","bzb5hmc2ggk","null","<div id=""countdown"">***</div>","null","","",""
"audio-keyboard-response","74","278423","0.0-74.0","bzb5hmc2ggk","null","perceptual_learning_stimuli/t1/r_good.wav","null","","",""
"survey-text","75","281755","0.0-75.0","bzb5hmc2ggk","3328","","","{""Q0"":""did""}","good","did"
"html-keyboard-response","76","284283","0.0-76.0","bzb5hmc2ggk","null","<div id=""countdown"">***</div>","null","","",""
"audio-keyboard-response","77","284583","0.0-77.0","bzb5hmc2ggk","null","perceptual_learning_stimuli/t1/r_noon.wav","null","","",""
"survey-text","78","288619","0.0-78.0","bzb5hmc2ggk","4032","","","{""Q0"":""no""}","noon","no"
"html-keyboard-response","79","291153","0.0-79.0","bzb5hmc2ggk","null","<div id=""countdown"">***</div>","null","","",""
"audio-keyboard-response","80","291484","0.0-80.0","bzb5hmc2ggk","null","perceptual_learning_stimuli/t1/r_nine.wav","null","","",""
"survey-text","81","296323","0.0-81.0","bzb5hmc2ggk","4835.5","","","{""Q0"":""night""}","nine","night"
"html-keyboard-response","82","298854","0.0-82.0","bzb5hmc2ggk","null","<div id=""countdown"">***</div>","null","","",""
"audio-keyboard-response","83","299194","0.0-83.0","bzb5hmc2ggk","null","perceptual_learning_stimuli/t1/r_chant.wav","null","","",""
"survey-text","84","302675","0.0-84.0","bzb5hmc2ggk","3477","","","{""Q0"":""tight""}","chant","tight"
"html-keyboard-response","85","305204","0.0-85.0","bzb5hmc2ggk","null","<div id=""countdown"">***</div>","null","","",""
"audio-keyboard-response","86","305694","0.0-86.0","bzb5hmc2ggk","null","perceptual_learning_stimuli/t1/r_frock.wav","null","","",""
"survey-text","87","310971","0.0-87.0","bzb5hmc2ggk","5272.5","","","{""Q0"":""fought""}","frock","fought"
"html-keyboard-response","88","313493","0.0-88.0","bzb5hmc2ggk","null","<div id=""countdown"">***</div>","null","","",""
"audio-keyboard-response","89","313945","0.0-89.0","bzb5hmc2ggk","null","perceptual_learning_stimuli/t1/r_greet.wav","null","","",""
"survey-text","90","317482","0.0-90.0","bzb5hmc2ggk","3534.5","","","{""Q0"":""joint""}","greet","joint"
"html-keyboard-response","91","320014","0.0-91.0","bzb5hmc2ggk","null","<div id=""countdown"">***</div>","null","","",""
"audio-keyboard-response","92","320305","0.0-92.0","bzb5hmc2ggk","null","perceptual_learning_stimuli/t1/r_web.wav","null","","",""
"survey-text","93","323523","0.0-93.0","bzb5hmc2ggk","3214.5","","","{""Q0"":""rub""}","web","rub"
"html-keyboard-response","94","326053","0.0-94.0","bzb5hmc2ggk","null","<div id=""countdown"">***</div>","null","","",""
"audio-keyboard-response","95","326375","0.0-95.0","bzb5hmc2ggk","null","perceptual_learning_stimuli/t1/r_rock.wav","null","","",""
"survey-text","96","329314","0.0-96.0","bzb5hmc2ggk","2935.8000000000466","","","{""Q0"":""rot""}","rock","rot"
"html-keyboard-response","97","331845","0.0-97.0","bzb5hmc2ggk","null","<div id=""countdown"">***</div>","null","","",""
"audio-keyboard-response","98","332196","0.0-98.0","bzb5hmc2ggk","null","perceptual_learning_stimuli/t1/r_dude.wav","null","","",""
"survey-text","99","334835","0.0-99.0","bzb5hmc2ggk","2636","","","{""Q0"":""dude""}","dude","dude"
"html-keyboard-response","100","337365","0.0-100.0","bzb5hmc2ggk","null","<div id=""countdown"">***</div>","null","","",""
"audio-keyboard-response","101","337654","0.0-101.0","bzb5hmc2ggk","null","perceptual_learning_stimuli/t1/r_wish.wav","null","","",""
"survey-text","102","341208","0.0-102.0","bzb5hmc2ggk","3551.5","","","{""Q0"":""wish""}","wish","wish"
"html-keyboard-response","103","343723","0.0-103.0","bzb5hmc2ggk","null","<div id=""countdown"">***</div>","null","","",""
"audio-keyboard-response","104","344074","0.0-104.0","bzb5hmc2ggk","null","perceptual_learning_stimuli/t1/r_treat.wav","null","","",""
"survey-text","105","363225","0.0-105.0","bzb5hmc2ggk","19147.199999999953","","","{""Q0"":""story""}","treat","story"
"html-keyboard-response","106","365754","0.0-106.0","bzb5hmc2ggk","null","<div id=""countdown"">***</div>","null","","",""
"audio-keyboard-response","107","366165","0.0-107.0","bzb5hmc2ggk","null","perceptual_learning_stimuli/t1/r_fume.wav","null","","",""
"survey-text","108","370665","0.0-108.0","bzb5hmc2ggk","4496.299999999814","","","{""Q0"":""flew""}","fume","flew"
"html-keyboard-response","109","373195","0.0-109.0","bzb5hmc2ggk","null","<div id=""countdown"">***</div>","null","","",""
"audio-keyboard-response","110","373506","0.0-110.0","bzb5hmc2ggk","null","perceptual_learning_stimuli/t1/r_dash.wav","null","","",""
"survey-text","111","377113","0.0-111.0","bzb5hmc2ggk","3603.7999999998137","","","{""Q0"":""dash""}","dash","dash"
"html-keyboard-response","112","379645","0.0-112.0","bzb5hmc2ggk","null","<div id=""countdown"">***</div>","null","","",""
"audio-keyboard-response","113","379916","0.0-113.0","bzb5hmc2ggk","null","perceptual_learning_stimuli/t1/r_teach.wav","null","","",""
"survey-text","114","383736","0.0-114.0","bzb5hmc2ggk","3817.5","","","{""Q0"":""teach""}","teach","teach"
"html-keyboard-response","115","386275","0.0-115.0","bzb5hmc2ggk","null","<div id=""countdown"">***</div>","null","","",""
"audio-keyboard-response","116","386656","0.0-116.0","bzb5hmc2ggk","null","perceptual_learning_stimuli/t1/r_list.wav","null","","",""
"survey-text","117","392016","0.0-117.0","bzb5hmc2ggk","5356.90000000014","","","{""Q0"":""list""}","list","list"
"html-keyboard-response","118","394546","0.0-118.0","bzb5hmc2ggk","null","<div id=""countdown"">***</div>","null","","",""
"audio-keyboard-response","119","394867","0.0-119.0","bzb5hmc2ggk","null","perceptual_learning_stimuli/t1/r_feet.wav","null","","",""
"survey-text","120","398027","0.0-120.0","bzb5hmc2ggk","3154.4000000001397","","","{""Q0"":""feet""}","feet","feet"
"html-keyboard-response","121","400568","0.0-121.0","bzb5hmc2ggk","null","<div id=""countdown"">***</div>","null","","",""
"audio-keyboard-response","122","401019","0.0-122.0","bzb5hmc2ggk","null","perceptual_learning_stimuli/t1/r_spook.wav","null","","",""
"survey-text","123","408434","0.0-123.0","bzb5hmc2ggk","7412.399999999907","","","{""Q0"":""squint""}","spook","squint"
"html-keyboard-response","124","410958","0.0-124.0","bzb5hmc2ggk","null","<div id=""countdown"">***</div>","null","","",""
"audio-keyboard-response","125","411339","0.0-125.0","bzb5hmc2ggk","null","perceptual_learning_stimuli/t1/r_seek.wav","null","","",""
"survey-text","126","414290","0.0-126.0","bzb5hmc2ggk","2947.9000000001397","","","{""Q0"":""feet""}","seek","feet"
"html-keyboard-response","127","416809","0.0-127.0","bzb5hmc2ggk","null","<div id=""countdown"">***</div>","null","","",""
"audio-keyboard-response","128","417150","0.0-128.0","bzb5hmc2ggk","null","perceptual_learning_stimuli/t1/r_bud.wav","null","","",""
"survey-text","129","420906","0.0-129.0","bzb5hmc2ggk","3753.5999999998603","","","{""Q0"":""bud""}","bud","bud"
"html-keyboard-response","130","423429","0.0-130.0","bzb5hmc2ggk","null","<div id=""countdown"">***</div>","null","","",""
"audio-keyboard-response","131","423760","0.0-131.0","bzb5hmc2ggk","null","perceptual_learning_stimuli/t1/r_mooch.wav","null","","",""
"survey-text","132","427067","0.0-132.0","bzb5hmc2ggk","3303.2999999998137","","","{""Q0"":""huge""}","mooch","huge"
"html-keyboard-response","133","429589","0.0-133.0","bzb5hmc2ggk","null","<div id=""countdown"">***</div>","null","","",""
"audio-keyboard-response","134","429960","0.0-134.0","bzb5hmc2ggk","null","perceptual_learning_stimuli/t1/r_prune.wav","null","","",""
"survey-text","135","436923","0.0-135.0","bzb5hmc2ggk","6958.800000000047","","","{""Q0"":""turbulent""}","prune","turbulent"
"html-keyboard-response","136","439442","0.0-136.0","bzb5hmc2ggk","null","<div id=""countdown"">***</div>","null","","",""
"audio-keyboard-response","137","439911","0.0-137.0","bzb5hmc2ggk","null","perceptual_learning_stimuli/t1/r_thread.wav","null","","",""
"survey-text","138","445019","0.0-138.0","bzb5hmc2ggk","5104.5","","","{""Q0"":""slide""}","thread","slide"
"html-keyboard-response","139","447540","0.0-139.0","bzb5hmc2ggk","null","<div id=""countdown"">***</div>","null","","",""
"audio-keyboard-response","140","447871","0.0-140.0","bzb5hmc2ggk","null","perceptual_learning_stimuli/t1/r_rack.wav","null","","",""
"survey-text","141","451187","0.0-141.0","bzb5hmc2ggk","3312.1999999999534","","","{""Q0"":""rock""}","rack","rock"
"html-keyboard-response","142","453698","0.0-142.0","bzb5hmc2ggk","null","<div id=""countdown"">***</div>","null","","",""
"audio-keyboard-response","143","454021","0.0-143.0","bzb5hmc2ggk","null","perceptual_learning_stimuli/t1/r_ship.wav","null","","",""
"survey-text","144","457315","0.0-144.0","bzb5hmc2ggk","3289.9000000001397","","","{""Q0"":""ship""}","ship","ship"
"html-keyboard-response","145","459830","0.0-145.0","bzb5hmc2ggk","null","<div id=""countdown"">***</div>","null","","",""
"audio-keyboard-response","146","460272","0.0-146.0","bzb5hmc2ggk","null","perceptual_learning_stimuli/t1/r_rasp.wav","null","","",""
"survey-text","147","467579","0.0-147.0","bzb5hmc2ggk","7303.40000000014","","","{""Q0"":""rest""}","rasp","rest"
"html-keyboard-response","148","470101","0.0-148.0","bzb5hmc2ggk","null","<div id=""countdown"">***</div>","null","","",""
"audio-keyboard-response","149","470412","0.0-149.0","bzb5hmc2ggk","null","perceptual_learning_stimuli/t1/r_lawn.wav","null","","",""
"survey-text","150","486058","0.0-150.0","bzb5hmc2ggk","15642.800000000047","","","{""Q0"":""lay""}","lawn","lay"
"html-keyboard-response","151","488592","0.0-151.0","bzb5hmc2ggk","null","<div id=""countdown"">***</div>","null","","",""
"audio-keyboard-response","152","488913","0.0-152.0","bzb5hmc2ggk","null","perceptual_learning_stimuli/t1/r_moose.wav","null","","",""
"survey-text","153","497746","0.0-153.0","bzb5hmc2ggk","8829.90000000014","","","{""Q0"":""choose ""}","moose","choose "
"html-keyboard-response","154","500273","0.0-154.0","bzb5hmc2ggk","null","<div id=""countdown"">***</div>","null","","",""
"audio-keyboard-response","155","500654","0.0-155.0","bzb5hmc2ggk","null","perceptual_learning_stimuli/t1/r_last.wav","null","","",""
"survey-text","156","506858","0.0-156.0","bzb5hmc2ggk","6201.399999999907","","","{""Q0"":""lest""}","last","lest"
"html-keyboard-response","157","509363","0.0-157.0","bzb5hmc2ggk","null","<div id=""countdown"">***</div>","null","","",""
"audio-keyboard-response","158","509684","0.0-158.0","bzb5hmc2ggk","null","perceptual_learning_stimuli/t1/r_heap.wav","null","","",""
"survey-text","159","514346","0.0-159.0","bzb5hmc2ggk","4658.800000000279","","","{""Q0"":""peep""}","heap","peep"
"html-keyboard-response","160","516883","0.0-160.0","bzb5hmc2ggk","null","<div id=""countdown"">***</div>","null","","",""
"audio-keyboard-response","161","517154","0.0-161.0","bzb5hmc2ggk","null","perceptual_learning_stimuli/t1/r_lean.wav","null","","",""
"survey-text","162","535737","0.0-162.0","bzb5hmc2ggk","18580.5","","","{""Q0"":""lead""}","lean","lead"
"html-keyboard-response","163","538264","0.0-163.0","bzb5hmc2ggk","null","<div id=""countdown"">***</div>","null","","",""
"audio-keyboard-response","164","538675","0.0-164.0","bzb5hmc2ggk","null","perceptual_learning_stimuli/t1/r_sped.wav","null","","",""
"survey-text","165","547666","0.0-165.0","bzb5hmc2ggk","8987.600000000093","","","{""Q0"":""stand""}","sped","stand"
"html-keyboard-response","166","550205","0.0-166.0","bzb5hmc2ggk","null","<div id=""countdown"">***</div>","null","","",""
"audio-keyboard-response","167","550645","0.0-167.0","bzb5hmc2ggk","null","perceptual_learning_stimuli/t1/r_feast.wav","null","","",""
"survey-text","168","553922","0.0-168.0","bzb5hmc2ggk","3273.5","","","{""Q0"":""feast""}","feast","feast"
"html-keyboard-response","169","556445","0.0-169.0","bzb5hmc2ggk","null","<div id=""countdown"">***</div>","null","","",""
"audio-keyboard-response","170","556856","0.0-170.0","bzb5hmc2ggk","null","perceptual_learning_stimuli/t1/r_dodge.wav","null","","",""
"survey-text","171","561554","0.0-171.0","bzb5hmc2ggk","4695.0999999996275","","","{""Q0"":""dubbed""}","dodge","dubbed"
"html-keyboard-response","172","564085","0.0-172.0","bzb5hmc2ggk","null","<div id=""countdown"">***</div>","null","","",""
"audio-keyboard-response","173","564536","0.0-173.0","bzb5hmc2ggk","null","perceptual_learning_stimuli/t1/r_brook.wav","null","","",""
"survey-text","174","568914","0.0-174.0","bzb5hmc2ggk","4374.299999999814","","","{""Q0"":""broke""}","brook","broke"
"html-keyboard-response","175","571423","0.0-175.0","bzb5hmc2ggk","null","<div id=""countdown"">***</div>","null","","",""
"audio-keyboard-response","176","571696","0.0-176.0","bzb5hmc2ggk","null","perceptual_learning_stimuli/t1/r_nap.wav","null","","",""
"survey-text","177","581954","0.0-177.0","bzb5hmc2ggk","10254","","","{""Q0"":""yank""}","nap","yank"
"html-keyboard-response","178","584476","0.0-178.0","bzb5hmc2ggk","null","<div id=""countdown"">***</div>","null","","",""
"audio-keyboard-response","179","584737","0.0-179.0","bzb5hmc2ggk","null","perceptual_learning_stimuli/t1/r_peace.wav","null","","",""
"survey-text","180","588410","0.0-180.0","bzb5hmc2ggk","3669.600000000093","","","{""Q0"":""please""}","peace","please"
"html-keyboard-response","181","590936","0.0-181.0","bzb5hmc2ggk","null","<div id=""countdown"">***</div>","null","","",""
"audio-keyboard-response","182","591417","0.0-182.0","bzb5hmc2ggk","null","perceptual_learning_stimuli/t1/r_fraud.wav","null","","",""
"survey-text","183","600810","0.0-183.0","bzb5hmc2ggk","9389","","","{""Q0"":""frog""}","fraud","frog"
"html-keyboard-response","184","603327","0.0-184.0","bzb5hmc2ggk","null","<div id=""countdown"">***</div>","null","","",""
"audio-keyboard-response","185","603608","0.0-185.0","bzb5hmc2ggk","null","perceptual_learning_stimuli/t1/r_hill.wav","null","","",""
"survey-text","186","607234","0.0-186.0","bzb5hmc2ggk","3622.600000000093","","","{""Q0"":""help""}","hill","help"
"html-keyboard-response","187","609757","0.0-187.0","bzb5hmc2ggk","null","<div id=""countdown"">***</div>","null","","",""
"audio-keyboard-response","188","610278","0.0-188.0","bzb5hmc2ggk","null","perceptual_learning_stimuli/t1/r_blotch.wav","null","","",""
"survey-text","189","620234","0.0-189.0","bzb5hmc2ggk","9951.899999999907","","","{""Q0"":""clutch""}","blotch","clutch"
"html-keyboard-response","190","622766","0.0-190.0","bzb5hmc2ggk","null","<div id=""countdown"">***</div>","null","","",""
"audio-keyboard-response","191","623309","0.0-191.0","bzb5hmc2ggk","null","perceptual_learning_stimuli/t1/r_bluff.wav","null","","",""
"survey-text","192","627458","0.0-192.0","bzb5hmc2ggk","4145.5","","","{""Q0"":""glass""}","bluff","glass"
"html-keyboard-response","193","629978","0.0-193.0","bzb5hmc2ggk","null","<div id=""countdown"">***</div>","null","","",""
"audio-keyboard-response","194","630349","0.0-194.0","bzb5hmc2ggk","null","perceptual_learning_stimuli/t1/r_fame.wav","null","","",""
"survey-text","195","634290","0.0-195.0","bzb5hmc2ggk","3937.100000000093","","","{""Q0"":""hey""}","fame","hey"
"html-keyboard-response","196","636819","0.0-196.0","bzb5hmc2ggk","null","<div id=""countdown"">***</div>","null","","",""
"audio-keyboard-response","197","637199","0.0-197.0","bzb5hmc2ggk","null","perceptual_learning_stimuli/t1/r_crop.wav","null","","",""
"survey-text","198","640450","0.0-198.0","bzb5hmc2ggk","3247","","","{""Q0"":""drop""}","crop","drop"
"html-keyboard-response","199","642988","0.0-199.0","bzb5hmc2ggk","null","<div id=""countdown"">***</div>","null","","",""
"audio-keyboard-response","200","643420","0.0-200.0","bzb5hmc2ggk","null","perceptual_learning_stimuli/t1/r_waft.wav","null","","",""
"survey-text","201","647049","0.0-201.0","bzb5hmc2ggk","3626.5999999996275","","","{""Q0"":""list""}","waft","list"
"html-keyboard-response","202","649579","0.0-202.0","bzb5hmc2ggk","null","<div id=""countdown"">***</div>","null","","",""
"audio-keyboard-response","203","649900","0.0-203.0","bzb5hmc2ggk","null","perceptual_learning_stimuli/t1/r_give.wav","null","","",""
"survey-text","204","653986","0.0-204.0","bzb5hmc2ggk","4082.2999999998137","","","{""Q0"":""glue""}","give","glue"
"html-keyboard-response","205","656499","0.0-205.0","bzb5hmc2ggk","null","<div id=""countdown"">***</div>","null","","",""
"audio-keyboard-response","206","656990","0.0-206.0","bzb5hmc2ggk","null","perceptual_learning_stimuli/t1/r_grab.wav","null","","",""
"survey-text","207","660906","0.0-207.0","bzb5hmc2ggk","3912.100000000093","","","{""Q0"":""drug""}","grab","drug"
"html-keyboard-response","208","663419","0.0-208.0","bzb5hmc2ggk","null","<div id=""countdown"">***</div>","null","","",""
"audio-keyboard-response","209","663851","0.0-209.0","bzb5hmc2ggk","null","perceptual_learning_stimuli/t1/r_jaunt.wav","null","","",""
"survey-text","210","667130","0.0-210.0","bzb5hmc2ggk","3275.899999999907","","","{""Q0"":""joint""}","jaunt","joint"
"html-keyboard-response","211","669650","0.0-211.0","bzb5hmc2ggk","null","<div id=""countdown"">***</div>","null","","",""
"audio-keyboard-response","212","670061","0.0-212.0","bzb5hmc2ggk","null","perceptual_learning_stimuli/t1/r_creek.wav","null","","",""
"survey-text","213","707209","0.0-213.0","bzb5hmc2ggk","37145.39999999991","","","{""Q0"":""party""}","creek","party"
"html-keyboard-response","214","709713","0.0-214.0","bzb5hmc2ggk","null","<div id=""countdown"">***</div>","null","","",""
"audio-keyboard-response","215","710209","0.0-215.0","bzb5hmc2ggk","null","perceptual_learning_stimuli/t1/r_lost.wav","null","","",""
"survey-text","216","713346","0.0-216.0","bzb5hmc2ggk","3133.5","","","{""Q0"":""list""}","lost","list"
"html-keyboard-response","217","715850","0.0-217.0","bzb5hmc2ggk","null","<div id=""countdown"">***</div>","null","","",""
"audio-keyboard-response","218","716189","0.0-218.0","bzb5hmc2ggk","null","perceptual_learning_stimuli/t1/r_plume.wav","null","","",""
"survey-text","219","719474","0.0-219.0","bzb5hmc2ggk","3281.2999999998137","","","{""Q0"":""quilt""}","plume","quilt"
"html-keyboard-response","220","721989","0.0-220.0","bzb5hmc2ggk","null","<div id=""countdown"">***</div>","null","","",""
"audio-keyboard-response","221","722410","0.0-221.0","bzb5hmc2ggk","null","perceptual_learning_stimuli/t1/r_bliss.wav","null","","",""
"survey-text","222","727962","0.0-222.0","bzb5hmc2ggk","5548.800000000279","","","{""Q0"":""glass""}","bliss","glass"
"html-keyboard-response","223","730488","0.0-223.0","bzb5hmc2ggk","null","<div id=""countdown"">***</div>","null","","",""
"audio-keyboard-response","224","730840","0.0-224.0","bzb5hmc2ggk","null","perceptual_learning_stimuli/t1/r_dig.wav","null","","",""
"survey-text","225","734242","0.0-225.0","bzb5hmc2ggk","3398.1999999997206","","","{""Q0"":""dig""}","dig","dig"
"html-keyboard-response","226","736759","0.0-226.0","bzb5hmc2ggk","null","<div id=""countdown"">***</div>","null","","",""
"audio-keyboard-response","227","737070","0.0-227.0","bzb5hmc2ggk","null","perceptual_learning_stimuli/t1/r_leg.wav","null","","",""
"survey-text","228","750346","0.0-228.0","bzb5hmc2ggk","13271.899999999907","","","{""Q0"":""glug""}","leg","glug"
"html-keyboard-response","229","752860","0.0-229.0","bzb5hmc2ggk","null","<div id=""countdown"">***</div>","null","","",""
"audio-keyboard-response","230","753261","0.0-230.0","bzb5hmc2ggk","null","perceptual_learning_stimuli/t1/r_crawl.wav","null","","",""
"survey-text","231","759490","0.0-231.0","bzb5hmc2ggk","6225.399999999907","","","{""Q0"":""control""}","crawl","control"
"html-keyboard-response","232","762011","0.0-232.0","bzb5hmc2ggk","null","<div id=""countdown"">***</div>","null","","",""
"audio-keyboard-response","233","762482","0.0-233.0","bzb5hmc2ggk","null","perceptual_learning_stimuli/t1/r_stag.wav","null","","",""
"survey-text","234","768946","0.0-234.0","bzb5hmc2ggk","6460.5","","","{""Q0"":""stack""}","stag","stack"
"html-keyboard-response","235","771453","0.0-235.0","bzb5hmc2ggk","null","<div id=""countdown"">***</div>","null","","",""
"audio-keyboard-response","236","771842","0.0-236.0","bzb5hmc2ggk","null","perceptual_learning_stimuli/t1/r_stem.wav","null","","",""
"survey-text","237","775874","0.0-237.0","bzb5hmc2ggk","4028","","","{""Q0"":""state""}","stem","state"
"html-keyboard-response","238","778402","0.0-238.0","bzb5hmc2ggk","null","<div id=""countdown"">***</div>","null","","",""
"audio-keyboard-response","239","778793","0.0-239.0","bzb5hmc2ggk","null","perceptual_learning_stimuli/t1/r_sauce.wav","null","","",""
"survey-text","240","782322","0.0-240.0","bzb5hmc2ggk","3525.6999999997206","","","{""Q0"":""source""}","sauce","source"
"html-keyboard-response","241","784842","0.0-241.0","bzb5hmc2ggk","null","<div id=""countdown"">***</div>","null","","",""
"audio-keyboard-response","242","785153","0.0-242.0","bzb5hmc2ggk","null","perceptual_learning_stimuli/t1/r_rough.wav","null","","",""
"survey-text","243","788634","0.0-243.0","bzb5hmc2ggk","3477.6999999997206","","","{""Q0"":""rough""}","rough","rough"
"html-keyboard-response","244","791162","0.0-244.0","bzb5hmc2ggk","null","<div id=""countdown"">***</div>","null","","",""
"audio-keyboard-response","245","791453","0.0-245.0","bzb5hmc2ggk","null","perceptual_learning_stimuli/t1/r_weed.wav","null","","",""
"survey-text","246","793858","0.0-246.0","bzb5hmc2ggk","2402.600000000093","","","{""Q0"":""read""}","weed","read"
"html-keyboard-response","247","796372","0.0-247.0","bzb5hmc2ggk","null","<div id=""countdown"">***</div>","null","","",""
"audio-keyboard-response","248","796583","0.0-248.0","bzb5hmc2ggk","null","perceptual_learning_stimuli/t1/r_ten.wav","null","","",""
"survey-text","249","800322","0.0-249.0","bzb5hmc2ggk","3735.3000000002794","","","{""Q0"":""tent""}","ten","tent"
"html-keyboard-response","250","802850","0.0-250.0","bzb5hmc2ggk","null","<div id=""countdown"">***</div>","null","","",""
"audio-keyboard-response","251","803204","0.0-251.0","bzb5hmc2ggk","null","perceptual_learning_stimuli/t1/r_lunge.wav","null","","",""
"survey-text","252","808386","0.0-252.0","bzb5hmc2ggk","5179","","","{""Q0"":""light""}","lunge","light"
"html-keyboard-response","253","810913","0.0-253.0","bzb5hmc2ggk","null","<div id=""countdown"">***</div>","null","","",""
"audio-keyboard-response","254","811384","0.0-254.0","bzb5hmc2ggk","null","perceptual_learning_stimuli/t1/r_six.wav","null","","",""
"survey-text","255","814738","0.0-255.0","bzb5hmc2ggk","3350.2000000001863","","","{""Q0"":""six""}","six","six"
"html-keyboard-response","256","817242","0.0-256.0","bzb5hmc2ggk","null","<div id=""countdown"">***</div>","null","","",""
"audio-keyboard-response","257","817625","0.0-257.0","bzb5hmc2ggk","null","perceptual_learning_stimuli/t1/r_slot.wav","null","","",""
"survey-text","258","822705","0.0-258.0","bzb5hmc2ggk","5078","","","{""Q0"":""slight""}","slot","slight"
"html-keyboard-response","259","825234","0.0-259.0","bzb5hmc2ggk","null","<div id=""countdown"">***</div>","null","","",""
"audio-keyboard-response","260","825494","0.0-260.0","bzb5hmc2ggk","null","perceptual_learning_stimuli/t1/r_kiss.wav","null","","",""
"survey-text","261","828665","0.0-261.0","bzb5hmc2ggk","3167.8000000002794","","","{""Q0"":""peace""}","kiss","peace"
"html-keyboard-response","262","831184","0.0-262.0","bzb5hmc2ggk","null","<div id=""countdown"">***</div>","null","","",""
"audio-keyboard-response","263","831585","0.0-263.0","bzb5hmc2ggk","null","perceptual_learning_stimuli/t1/r_glue.wav","null","","",""
"survey-text","264","834890","0.0-264.0","bzb5hmc2ggk","3301.600000000093","","","{""Q0"":""go""}","glue","go"
"html-keyboard-response","265","837406","0.0-265.0","bzb5hmc2ggk","null","<div id=""countdown"">***</div>","null","","",""
"audio-keyboard-response","266","837705","0.0-266.0","bzb5hmc2ggk","null","perceptual_learning_stimuli/t1/r_bet.wav","null","","",""
"survey-text","267","840913","0.0-267.0","bzb5hmc2ggk","3205.100000000093","","","{""Q0"":""bite""}","bet","bite"
"html-keyboard-response","268","843424","0.0-268.0","bzb5hmc2ggk","null","<div id=""countdown"">***</div>","null","","",""
"audio-keyboard-response","269","843845","0.0-269.0","bzb5hmc2ggk","null","perceptual_learning_stimuli/t1/r_spot.wav","null","","",""
"survey-text","270","852609","0.0-270.0","bzb5hmc2ggk","8760.600000000093","","","{""Q0"":""scout""}","spot","scout"
"html-keyboard-response","271","855135","0.0-271.0","bzb5hmc2ggk","null","<div id=""countdown"">***</div>","null","","",""
"audio-keyboard-response","272","855386","0.0-272.0","bzb5hmc2ggk","null","perceptual_learning_stimuli/t1/r_mat.wav","null","","",""
"survey-text","273","858305","0.0-273.0","bzb5hmc2ggk","2916.2000000001863","","","{""Q0"":""right""}","mat","right"
"html-keyboard-response","274","860846","0.0-274.0","bzb5hmc2ggk","null","<div id=""countdown"">***</div>","null","","",""
"audio-keyboard-response","275","861136","0.0-275.0","bzb5hmc2ggk","null","perceptual_learning_stimuli/t1/r_clue.wav","null","","",""
"survey-text","276","868690","0.0-276.0","bzb5hmc2ggk","7550","","","{""Q0"":""go""}","clue","go"
"html-keyboard-response","277","871196","0.0-277.0","bzb5hmc2ggk","null","<div id=""countdown"">***</div>","null","","",""
"audio-keyboard-response","278","871477","0.0-278.0","bzb5hmc2ggk","null","perceptual_learning_stimuli/t1/r_cheese.wav","null","","",""
"survey-text","279","875098","0.0-279.0","bzb5hmc2ggk","3617.600000000093","","","{""Q0"":""peace""}","cheese","peace"
"html-keyboard-response","280","877609","0.0-280.0","bzb5hmc2ggk","null","<div id=""countdown"">***</div>","null","","",""
"audio-keyboard-response","281","878037","0.0-281.0","bzb5hmc2ggk","null","perceptual_learning_stimuli/t1/r_flock.wav","null","","",""
"survey-text","282","881410","0.0-282.0","bzb5hmc2ggk","3369.2000000001863","","","{""Q0"":""flight""}","flock","flight"
"html-keyboard-response","283","883917","0.0-283.0","bzb5hmc2ggk","null","<div id=""countdown"">***</div>","null","","",""
"audio-keyboard-response","284","884488","0.0-284.0","bzb5hmc2ggk","null","perceptual_learning_stimuli/t1/r_sketch.wav","null","","",""
"survey-text","285","894249","0.0-285.0","bzb5hmc2ggk","9758.5","","","{""Q0"":""scratch""}","sketch","scratch"
"html-keyboard-response","286","896787","0.0-286.0","bzb5hmc2ggk","null","<div id=""countdown"">***</div>","null","","",""
"audio-keyboard-response","287","897128","0.0-287.0","bzb5hmc2ggk","null","perceptual_learning_stimuli/t1/r_reef.wav","null","","",""
"survey-text","288","900218","0.0-288.0","bzb5hmc2ggk","3086.399999999907","","","{""Q0"":""release""}","reef","release"
"html-keyboard-response","289","902757","0.0-289.0","bzb5hmc2ggk","null","<div id=""countdown"">***</div>","null","","",""
"audio-keyboard-response","290","903078","0.0-290.0","bzb5hmc2ggk","null","perceptual_learning_stimuli/t1/r_gun.wav","null","","",""
"survey-text","291","905666","0.0-291.0","bzb5hmc2ggk","2584.399999999907","","","{""Q0"":""gun""}","gun","gun"
"html-keyboard-response","292","908168","0.0-292.0","bzb5hmc2ggk","null","<div id=""countdown"">***</div>","null","","",""
"audio-keyboard-response","293","908409","0.0-293.0","bzb5hmc2ggk","null","perceptual_learning_stimuli/t1/r_plea.wav","null","","",""
"survey-text","294","911826","0.0-294.0","bzb5hmc2ggk","3413.899999999907","","","{""Q0"":""play""}","plea","play"
"html-keyboard-response","295","914338","0.0-295.0","bzb5hmc2ggk","null","<div id=""countdown"">***</div>","null","","",""
"audio-keyboard-response","296","914649","0.0-296.0","bzb5hmc2ggk","null","perceptual_learning_stimuli/t1/r_rich.wav","null","","",""
"survey-text","297","920833","0.0-297.0","bzb5hmc2ggk","6181","","","{""Q0"":""earth""}","rich","earth"
"html-keyboard-response","298","923339","0.0-298.0","bzb5hmc2ggk","null","<div id=""countdown"">***</div>","null","","",""
"audio-keyboard-response","299","923709","0.0-299.0","bzb5hmc2ggk","null","perceptual_learning_stimuli/t1/r_flaw.wav","null","","",""
"survey-text","300","926929","0.0-300.0","bzb5hmc2ggk","3216.8000000002794","","","{""Q0"":""flow""}","flaw","flow"
"html-keyboard-response","301","929458","0.0-301.0","bzb5hmc2ggk","null","<div id=""countdown"">***</div>","null","","",""
"audio-keyboard-response","302","929840","0.0-302.0","bzb5hmc2ggk","null","perceptual_learning_stimuli/t1/r_mist.wav","null","","",""
"survey-text","303","934002","0.0-303.0","bzb5hmc2ggk","4158.5","","","{""Q0"":""risk""}","mist","risk"
"html-keyboard-response","304","946980","0.0-304.0","bzb5hmc2ggk","11975.80000000028","In the next block you will receive feedback after you have typed in the word that you heard. Please make sure to note if there is a difference between what you typed and what the word really is.","32","","",""
"html-keyboard-response","305","949010","0.0-305.0","bzb5hmc2ggk","null","<div id=""countdown"">***</div>","null","","",""
"audio-keyboard-response","306","949311","0.0-306.0","bzb5hmc2ggk","null","perceptual_learning_stimuli/f1/r_bomb.wav","null","","",""
"survey-text","307","954026","0.0-307.0","bzb5hmc2ggk","4711.899999999907","","","{""Q0"":""bye""}","bomb","bye"
"html-keyboard-response","308","956050","0.0-308.0","bzb5hmc2ggk","null","bomb","null","","",""
"audio-keyboard-response","309","957810","0.0-309.0","bzb5hmc2ggk","null","","null","","",""
"html-keyboard-response","310","959850","0.0-310.0","bzb5hmc2ggk","null","<div id=""countdown"">***</div>","null","","",""
"audio-keyboard-response","311","960301","0.0-311.0","bzb5hmc2ggk","null","perceptual_learning_stimuli/f1/r_snoop.wav","null","","",""
"survey-text","312","964442","0.0-312.0","bzb5hmc2ggk","4137.100000000093","","","{""Q0"":""sleep""}","snoop","sleep"
"html-keyboard-response","313","966461","0.0-313.0","bzb5hmc2ggk","null","snoop","null","","",""
"audio-keyboard-response","314","968221","0.0-314.0","bzb5hmc2ggk","null","","null","","",""
"html-keyboard-response","315","970234","0.0-315.0","bzb5hmc2ggk","null","<div id=""countdown"">***</div>","null","","",""
"audio-keyboard-response","316","970642","0.0-316.0","bzb5hmc2ggk","null","perceptual_learning_stimuli/f1/r_brew.wav","null","","",""
"survey-text","317","980962","0.0-317.0","bzb5hmc2ggk","10316.5","","","{""Q0"":""below""}","brew","below"
"html-keyboard-response","318","982972","0.0-318.0","bzb5hmc2ggk","null","brew","null","","",""
"audio-keyboard-response","319","984732","0.0-319.0","bzb5hmc2ggk","null","","null","","",""
"html-keyboard-response","320","986752","0.0-320.0","bzb5hmc2ggk","null","<div id=""countdown"">***</div>","null","","",""
"audio-keyboard-response","321","987023","0.0-321.0","bzb5hmc2ggk","null","perceptual_learning_stimuli/f1/r_tune.wav","null","","",""
"survey-text","322","990978","0.0-322.0","bzb5hmc2ggk","3951.7000000001863","","","{""Q0"":""two""}","tune","two"
"html-keyboard-response","323","992982","0.0-323.0","bzb5hmc2ggk","null","tune","null","","",""
"audio-keyboard-response","324","994738","0.0-324.0","bzb5hmc2ggk","null","","null","","",""
"html-keyboard-response","325","996772","0.0-325.0","bzb5hmc2ggk","null","<div id=""countdown"">***</div>","null","","",""
"audio-keyboard-response","326","997073","0.0-326.0","bzb5hmc2ggk","null","perceptual_learning_stimuli/f1/r_mock.wav","null","","",""
"survey-text","327","1000865","0.0-327.0","bzb5hmc2ggk","3789.100000000093","","","{""Q0"":""right""}","mock","right"
"html-keyboard-response","328","1002873","0.0-328.0","bzb5hmc2ggk","null","mock","null","","",""
"audio-keyboard-response","329","1004627","0.0-329.0","bzb5hmc2ggk","null","","null","","",""
"html-keyboard-response","330","1006652","0.0-330.0","bzb5hmc2ggk","null","<div id=""countdown"">***</div>","null","","",""
"audio-keyboard-response","331","1006933","0.0-331.0","bzb5hmc2ggk","null","perceptual_learning_stimuli/f1/r_cub.wav","null","","",""
"survey-text","332","1010961","0.0-332.0","bzb5hmc2ggk","4024.9000000003725","","","{""Q0"":""cub""}","cub","cub"
"html-keyboard-response","333","1013002","0.0-333.0","bzb5hmc2ggk","null","cub","null","","",""
"audio-keyboard-response","334","1014773","0.0-334.0","bzb5hmc2ggk","null","","null","","",""
"html-keyboard-response","335","1016813","0.0-335.0","bzb5hmc2ggk","null","<div id=""countdown"">***</div>","null","","",""
"audio-keyboard-response","336","1017303","0.0-336.0","bzb5hmc2ggk","null","perceptual_learning_stimuli/f1/r_speak.wav","null","","",""
"survey-text","337","1021841","0.0-337.0","bzb5hmc2ggk","4534.300000000279","","","{""Q0"":""squeak""}","speak","squeak"
"html-keyboard-response","338","1023864","0.0-338.0","bzb5hmc2ggk","null","speak","null","","",""
"audio-keyboard-response","339","1025632","0.0-339.0","bzb5hmc2ggk","null","","null","","",""
"html-keyboard-response","340","1027663","0.0-340.0","bzb5hmc2ggk","null","<div id=""countdown"">***</div>","null","","",""
"audio-keyboard-response","341","1028054","0.0-341.0","bzb5hmc2ggk","null","perceptual_learning_stimuli/f1/r_chest.wav","null","","",""
"survey-text","342","1032985","0.0-342.0","bzb5hmc2ggk","4927.899999999907","","","{""Q0"":""chest""}","chest","chest"
"html-keyboard-response","343","1035014","0.0-343.0","bzb5hmc2ggk","null","chest","null","","",""
"audio-keyboard-response","344","1036767","0.0-344.0","bzb5hmc2ggk","null","","null","","",""
"html-keyboard-response","345","1038793","0.0-345.0","bzb5hmc2ggk","null","<div id=""countdown"">***</div>","null","","",""
"audio-keyboard-response","346","1039095","0.0-346.0","bzb5hmc2ggk","null","perceptual_learning_stimuli/f1/r_bit.wav","null","","",""
"survey-text","347","1042857","0.0-347.0","bzb5hmc2ggk","3759.5","","","{""Q0"":""bit""}","bit","bit"
"html-keyboard-response","348","1044865","0.0-348.0","bzb5hmc2ggk","null","bit","null","","",""
"audio-keyboard-response","349","1046622","0.0-349.0","bzb5hmc2ggk","null","","null","","",""
"html-keyboard-response","350","1048634","0.0-350.0","bzb5hmc2ggk","null","<div id=""countdown"">***</div>","null","","",""
"audio-keyboard-response","351","1048935","0.0-351.0","bzb5hmc2ggk","null","perceptual_learning_stimuli/f1/r_pure.wav","null","","",""
"survey-text","352","1052721","0.0-352.0","bzb5hmc2ggk","3783.2000000001863","","","{""Q0"":""fewer""}","pure","fewer"
"html-keyboard-response","353","1054745","0.0-353.0","bzb5hmc2ggk","null","pure","null","","",""
"audio-keyboard-response","354","1056515","0.0-354.0","bzb5hmc2ggk","null","","null","","",""
"html-keyboard-response","355","1058554","0.0-355.0","bzb5hmc2ggk","null","<div id=""countdown"">***</div>","null","","",""
"audio-keyboard-response","356","1058985","0.0-356.0","bzb5hmc2ggk","null","perceptual_learning_stimuli/f1/r_launch.wav","null","","",""
"survey-text","357","1062993","0.0-357.0","bzb5hmc2ggk","4004.5","","","{""Q0"":""lunch""}","launch","lunch"
"html-keyboard-response","358","1065005","0.0-358.0","bzb5hmc2ggk","null","launch","null","","",""
"audio-keyboard-response","359","1066758","0.0-359.0","bzb5hmc2ggk","null","","null","","",""
"html-keyboard-response","360","1068765","0.0-360.0","bzb5hmc2ggk","null","<div id=""countdown"">***</div>","null","","",""
"audio-keyboard-response","361","1069066","0.0-361.0","bzb5hmc2ggk","null","perceptual_learning_stimuli/f1/r_check.wav","null","","",""
"survey-text","362","1072113","0.0-362.0","bzb5hmc2ggk","3044.100000000093","","","{""Q0"":""check""}","check","check"
"html-keyboard-response","363","1074136","0.0-363.0","bzb5hmc2ggk","null","check","null","","",""
"audio-keyboard-response","364","1075895","0.0-364.0","bzb5hmc2ggk","null","","null","","",""
"html-keyboard-response","365","1077925","0.0-365.0","bzb5hmc2ggk","null","<div id=""countdown"">***</div>","null","","",""
"audio-keyboard-response","366","1078317","0.0-366.0","bzb5hmc2ggk","null","perceptual_learning_stimuli/f1/r_least.wav","null","","",""
"survey-text","367","1083257","0.0-367.0","bzb5hmc2ggk","4937.399999999907","","","{""Q0"":""waste""}","least","waste"
"html-keyboard-response","368","1085267","0.0-368.0","bzb5hmc2ggk","null","least","null","","",""
"audio-keyboard-response","369","1087026","0.0-369.0","bzb5hmc2ggk","null","","null","","",""
"html-keyboard-response","370","1089047","0.0-370.0","bzb5hmc2ggk","null","<div id=""countdown"">***</div>","null","","",""
"audio-keyboard-response","371","1089387","0.0-371.0","bzb5hmc2ggk","null","perceptual_learning_stimuli/f1/r_room.wav","null","","",""
"survey-text","372","1099601","0.0-372.0","bzb5hmc2ggk","10210.799999999814","","","{""Q0"":""arrow""}","room","arrow"
"html-keyboard-response","373","1101605","0.0-373.0","bzb5hmc2ggk","null","room","null","","",""
"audio-keyboard-response","374","1103367","0.0-374.0","bzb5hmc2ggk","null","","null","","",""
"html-keyboard-response","375","1105397","0.0-375.0","bzb5hmc2ggk","null","<div id=""countdown"">***</div>","null","","",""
"audio-keyboard-response","376","1105928","0.0-376.0","bzb5hmc2ggk","null","perceptual_learning_stimuli/f1/r_street.wav","null","","",""
"survey-text","377","1109761","0.0-377.0","bzb5hmc2ggk","3830.2000000001863","","","{""Q0"":""story""}","street","story"
"html-keyboard-response","378","1111777","0.0-378.0","bzb5hmc2ggk","null","street","null","","",""
"audio-keyboard-response","379","1113530","0.0-379.0","bzb5hmc2ggk","null","","null","","",""
"html-keyboard-response","380","1115537","0.0-380.0","bzb5hmc2ggk","null","<div id=""countdown"">***</div>","null","","",""
"audio-keyboard-response","381","1115888","0.0-381.0","bzb5hmc2ggk","null","perceptual_learning_stimuli/f1/r_hoop.wav","null","","",""
"survey-text","382","1118985","0.0-382.0","bzb5hmc2ggk","3093.7000000001863","","","{""Q0"":""coop""}","hoop","coop"
"html-keyboard-response","383","1120998","0.0-383.0","bzb5hmc2ggk","null","hoop","null","","",""
"audio-keyboard-response","384","1122768","0.0-384.0","bzb5hmc2ggk","null","","null","","",""
"html-keyboard-response","385","1124802","0.0-385.0","bzb5hmc2ggk","null","<div id=""countdown"">***</div>","null","","",""
"audio-keyboard-response","386","1125109","0.0-386.0","bzb5hmc2ggk","null","perceptual_learning_stimuli/f1/r_plod.wav","null","","",""
"survey-text","387","1132585","0.0-387.0","bzb5hmc2ggk","7473.199999999721","","","{""Q0"":""glad""}","plod","glad"
"html-keyboard-response","388","1134599","0.0-388.0","bzb5hmc2ggk","null","plod","null","","",""
"audio-keyboard-response","389","1136369","0.0-389.0","bzb5hmc2ggk","null","","null","","",""
"html-keyboard-response","390","1138389","0.0-390.0","bzb5hmc2ggk","null","<div id=""countdown"">***</div>","null","","",""
"audio-keyboard-response","391","1138650","0.0-391.0","bzb5hmc2ggk","null","perceptual_learning_stimuli/f1/r_chill.wav","null","","",""
"survey-text","392","1142826","0.0-392.0","bzb5hmc2ggk","4172.600000000093","","","{""Q0"":""chip""}","chill","chip"
"html-keyboard-response","393","1144831","0.0-393.0","bzb5hmc2ggk","null","chill","null","","",""
"audio-keyboard-response","394","1146589","0.0-394.0","bzb5hmc2ggk","null","","null","","",""
"html-keyboard-response","395","1148629","0.0-395.0","bzb5hmc2ggk","null","<div id=""countdown"">***</div>","null","","",""
"audio-keyboard-response","396","1148970","0.0-396.0","bzb5hmc2ggk","null","perceptual_learning_stimuli/f1/r_fish.wav","null","","",""
"survey-text","397","1152258","0.0-397.0","bzb5hmc2ggk","3284","","","{""Q0"":""push""}","fish","push"
"html-keyboard-response","398","1154270","0.0-398.0","bzb5hmc2ggk","null","fish","null","","",""
"audio-keyboard-response","399","1156030","0.0-399.0","bzb5hmc2ggk","null","","null","","",""
"html-keyboard-response","400","1158039","0.0-400.0","bzb5hmc2ggk","null","<div id=""countdown"">***</div>","null","","",""
"audio-keyboard-response","401","1158401","0.0-401.0","bzb5hmc2ggk","null","perceptual_learning_stimuli/f1/r_lept.wav","null","","",""
"survey-text","402","1163345","0.0-402.0","bzb5hmc2ggk","4941.0999999996275","","","{""Q0"":""lept""}","lept","lept"
"html-keyboard-response","403","1165380","0.0-403.0","bzb5hmc2ggk","null","lept","null","","",""
"audio-keyboard-response","404","1167134","0.0-404.0","bzb5hmc2ggk","null","","null","","",""
"html-keyboard-response","405","1169140","0.0-405.0","bzb5hmc2ggk","null","<div id=""countdown"">***</div>","null","","",""
"audio-keyboard-response","406","1169591","0.0-406.0","bzb5hmc2ggk","null","perceptual_learning_stimuli/f1/r_crest.wav","null","","",""
"survey-text","407","1172553","0.0-407.0","bzb5hmc2ggk","2959.399999999907","","","{""Q0"":""dressed""}","crest","dressed"
"html-keyboard-response","408","1174571","0.0-408.0","bzb5hmc2ggk","null","crest","null","","",""
"audio-keyboard-response","409","1176331","0.0-409.0","bzb5hmc2ggk","null","","null","","",""
"html-keyboard-response","410","1178351","0.0-410.0","bzb5hmc2ggk","null","<div id=""countdown"">***</div>","null","","",""
"audio-keyboard-response","411","1178662","0.0-411.0","bzb5hmc2ggk","null","perceptual_learning_stimuli/f1/r_cure.wav","null","","",""
"survey-text","412","1181625","0.0-412.0","bzb5hmc2ggk","2960.7999999998137","","","{""Q0"":""pure""}","cure","pure"
"html-keyboard-response","413","1183651","0.0-413.0","bzb5hmc2ggk","null","cure","null","","",""
"audio-keyboard-response","414","1185410","0.0-414.0","bzb5hmc2ggk","null","","null","","",""
"html-keyboard-response","415","1187422","0.0-415.0","bzb5hmc2ggk","null","<div id=""countdown"">***</div>","null","","",""
"audio-keyboard-response","416","1187912","0.0-416.0","bzb5hmc2ggk","null","perceptual_learning_stimuli/f1/r_shrug.wav","null","","",""
"survey-text","417","1191249","0.0-417.0","bzb5hmc2ggk","3334.5","","","{""Q0"":""shrug""}","shrug","shrug"
"html-keyboard-response","418","1193261","0.0-418.0","bzb5hmc2ggk","null","shrug","null","","",""
"audio-keyboard-response","419","1195031","0.0-419.0","bzb5hmc2ggk","null","","null","","",""
"html-keyboard-response","420","1197070","0.0-420.0","bzb5hmc2ggk","null","<div id=""countdown"">***</div>","null","","",""
"audio-keyboard-response","421","1197392","0.0-421.0","bzb5hmc2ggk","null","perceptual_learning_stimuli/f1/r_test.wav","null","","",""
"survey-text","422","1200537","0.0-422.0","bzb5hmc2ggk","3142.100000000093","","","{""Q0"":""test""}","test","test"
"html-keyboard-response","423","1202562","0.0-423.0","bzb5hmc2ggk","null","test","null","","",""
"audio-keyboard-response","424","1204332","0.0-424.0","bzb5hmc2ggk","null","","null","","",""
"html-keyboard-response","425","1206362","0.0-425.0","bzb5hmc2ggk","null","<div id=""countdown"">***</div>","null","","",""
"audio-keyboard-response","426","1206683","0.0-426.0","bzb5hmc2ggk","null","perceptual_learning_stimuli/f1/r_rick.wav","null","","",""
"survey-text","427","1210297","0.0-427.0","bzb5hmc2ggk","3611.5","","","{""Q0"":""rake""}","rick","rake"
"html-keyboard-response","428","1212313","0.0-428.0","bzb5hmc2ggk","null","rick","null","","",""
"audio-keyboard-response","429","1214072","0.0-429.0","bzb5hmc2ggk","null","","null","","",""
"html-keyboard-response","430","1216085","0.0-430.0","bzb5hmc2ggk","null","<div id=""countdown"">***</div>","null","","",""
"audio-keyboard-response","431","1216383","0.0-431.0","bzb5hmc2ggk","null","perceptual_learning_stimuli/f1/r_choose.wav","null","","",""
"survey-text","432","1220113","0.0-432.0","bzb5hmc2ggk","3727","","","{""Q0"":""choose ""}","choose","choose "
"html-keyboard-response","433","1222142","0.0-433.0","bzb5hmc2ggk","null","choose","null","","",""
"audio-keyboard-response","434","1223913","0.0-434.0","bzb5hmc2ggk","null","","null","","",""
"html-keyboard-response","435","1225943","0.0-435.0","bzb5hmc2ggk","null","<div id=""countdown"">***</div>","null","","",""
"audio-keyboard-response","436","1226254","0.0-436.0","bzb5hmc2ggk","null","perceptual_learning_stimuli/f1/r_shed.wav","null","","",""
"survey-text","437","1228929","0.0-437.0","bzb5hmc2ggk","2672.600000000093","","","{""Q0"":""shed""}","shed","shed"
"html-keyboard-response","438","1230953","0.0-438.0","bzb5hmc2ggk","null","shed","null","","",""
"audio-keyboard-response","439","1232713","0.0-439.0","bzb5hmc2ggk","null","","null","","",""
"html-keyboard-response","440","1234743","0.0-440.0","bzb5hmc2ggk","null","<div id=""countdown"">***</div>","null","","",""
"audio-keyboard-response","441","1235084","0.0-441.0","bzb5hmc2ggk","null","perceptual_learning_stimuli/f1/r_loss.wav","null","","",""
"survey-text","442","1238369","0.0-442.0","bzb5hmc2ggk","3281.7000000001863","","","{""Q0"":""loss""}","loss","loss"
"html-keyboard-response","443","1240394","0.0-443.0","bzb5hmc2ggk","null","loss","null","","",""
"audio-keyboard-response","444","1242153","0.0-444.0","bzb5hmc2ggk","null","","null","","",""
"html-keyboard-response","445","1244184","0.0-445.0","bzb5hmc2ggk","null","<div id=""countdown"">***</div>","null","","",""
"audio-keyboard-response","446","1244435","0.0-446.0","bzb5hmc2ggk","null","perceptual_learning_stimuli/f1/r_who.wav","null","","",""
"survey-text","447","1247274","0.0-447.0","bzb5hmc2ggk","2835.600000000093","","","{""Q0"":""who""}","who","who"
"html-keyboard-response","448","1249314","0.0-448.0","bzb5hmc2ggk","null","who","null","","",""
"audio-keyboard-response","449","1251084","0.0-449.0","bzb5hmc2ggk","null","","null","","",""
"html-keyboard-response","450","1253114","0.0-450.0","bzb5hmc2ggk","null","<div id=""countdown"">***</div>","null","","",""
"audio-keyboard-response","451","1253355","0.0-451.0","bzb5hmc2ggk","null","perceptual_learning_stimuli/f1/r_top.wav","null","","",""
"survey-text","452","1256121","0.0-452.0","bzb5hmc2ggk","2762.899999999907","","","{""Q0"":""top""}","top","top"
"html-keyboard-response","453","1258165","0.0-453.0","bzb5hmc2ggk","null","top","null","","",""
"audio-keyboard-response","454","1259924","0.0-454.0","bzb5hmc2ggk","null","","null","","",""
"html-keyboard-response","455","1261944","0.0-455.0","bzb5hmc2ggk","null","<div id=""countdown"">***</div>","null","","",""
"audio-keyboard-response","456","1262276","0.0-456.0","bzb5hmc2ggk","null","perceptual_learning_stimuli/f1/r_dock.wav","null","","",""
"survey-text","457","1267001","0.0-457.0","bzb5hmc2ggk","4722.5","","","{""Q0"":""get""}","dock","get"
"html-keyboard-response","458","1269007","0.0-458.0","bzb5hmc2ggk","null","dock","null","","",""
"audio-keyboard-response","459","1270765","0.0-459.0","bzb5hmc2ggk","null","","null","","",""
"html-keyboard-response","460","1272795","0.0-460.0","bzb5hmc2ggk","null","<div id=""countdown"">***</div>","null","","",""
"audio-keyboard-response","461","1273086","0.0-461.0","bzb5hmc2ggk","null","perceptual_learning_stimuli/f1/r_claw.wav","null","","",""
"survey-text","462","1276698","0.0-462.0","bzb5hmc2ggk","3608.2000000001863","","","{""Q0"":""cure""}","claw","cure"
"html-keyboard-response","463","1278716","0.0-463.0","bzb5hmc2ggk","null","claw","null","","",""
"audio-keyboard-response","464","1280469","0.0-464.0","bzb5hmc2ggk","null","","null","","",""
"html-keyboard-response","465","1282496","0.0-465.0","bzb5hmc2ggk","null","<div id=""countdown"">***</div>","null","","",""
"audio-keyboard-response","466","1282997","0.0-466.0","bzb5hmc2ggk","null","perceptual_learning_stimuli/f1/r_blessed.wav","null","","",""
"survey-text","467","1294170","0.0-467.0","bzb5hmc2ggk","11169.5","","","{""Q0"":""dressed""}","blessed","dressed"
"html-keyboard-response","468","1296187","0.0-468.0","bzb5hmc2ggk","null","blessed","null","","",""
"audio-keyboard-response","469","1297946","0.0-469.0","bzb5hmc2ggk","null","","null","","",""
"html-keyboard-response","470","1299967","0.0-470.0","bzb5hmc2ggk","null","<div id=""countdown"">***</div>","null","","",""
"audio-keyboard-response","471","1300247","0.0-471.0","bzb5hmc2ggk","null","perceptual_learning_stimuli/f1/r_cheat.wav","null","","",""
"survey-text","472","1302945","0.0-472.0","bzb5hmc2ggk","2694.4000000003725","","","{""Q0"":""cheat""}","cheat","cheat"
"html-keyboard-response","473","1304986","0.0-473.0","bzb5hmc2ggk","null","cheat","null","","",""
"audio-keyboard-response","474","1306739","0.0-474.0","bzb5hmc2ggk","null","","null","","",""
"html-keyboard-response","475","1308776","0.0-475.0","bzb5hmc2ggk","null","<div id=""countdown"">***</div>","null","","",""
"audio-keyboard-response","476","1309098","0.0-476.0","bzb5hmc2ggk","null","perceptual_learning_stimuli/f1/r_deal.wav","null","","",""
"survey-text","477","1317754","0.0-477.0","bzb5hmc2ggk","8652.600000000093","","","{""Q0"":""deep""}","deal","deep"
"html-keyboard-response","478","1319759","0.0-478.0","bzb5hmc2ggk","null","deal","null","","",""
"audio-keyboard-response","479","1321528","0.0-479.0","bzb5hmc2ggk","null","","null","","",""
"html-keyboard-response","480","1323547","0.0-480.0","bzb5hmc2ggk","null","<div id=""countdown"">***</div>","null","","",""
"audio-keyboard-response","481","1323858","0.0-481.0","bzb5hmc2ggk","null","perceptual_learning_stimuli/f1/r_myth.wav","null","","",""
"survey-text","482","1325897","0.0-482.0","bzb5hmc2ggk","2036","","","{""Q0"":""ace""}","myth","ace"
"html-keyboard-response","483","1327918","0.0-483.0","bzb5hmc2ggk","null","myth","null","","",""
"audio-keyboard-response","484","1329688","0.0-484.0","bzb5hmc2ggk","null","","null","","",""
"html-keyboard-response","485","1331718","0.0-485.0","bzb5hmc2ggk","null","<div id=""countdown"">***</div>","null","","",""
"audio-keyboard-response","486","1332039","0.0-486.0","bzb5hmc2ggk","null","perceptual_learning_stimuli/f1/r_clot.wav","null","","",""
"survey-text","487","1336953","0.0-487.0","bzb5hmc2ggk","4911.5","","","{""Q0"":""cut""}","clot","cut"
"html-keyboard-response","488","1338966","0.0-488.0","bzb5hmc2ggk","null","clot","null","","",""
"audio-keyboard-response","489","1340719","0.0-489.0","bzb5hmc2ggk","null","","null","","",""
"html-keyboard-response","490","1342738","0.0-490.0","bzb5hmc2ggk","null","<div id=""countdown"">***</div>","null","","",""
"audio-keyboard-response","491","1343070","0.0-491.0","bzb5hmc2ggk","null","perceptual_learning_stimuli/f1/r_reach.wav","null","","",""
"survey-text","492","1347417","0.0-492.0","bzb5hmc2ggk","4344.899999999907","","","{""Q0"":""reach""}","reach","reach"
"html-keyboard-response","493","1349449","0.0-493.0","bzb5hmc2ggk","null","reach","null","","",""
"audio-keyboard-response","494","1351219","0.0-494.0","bzb5hmc2ggk","null","","null","","",""
"html-keyboard-response","495","1353239","0.0-495.0","bzb5hmc2ggk","null","<div id=""countdown"">***</div>","null","","",""
"audio-keyboard-response","496","1353590","0.0-496.0","bzb5hmc2ggk","null","perceptual_learning_stimuli/f1/r_bead.wav","null","","",""
"survey-text","497","1356026","0.0-497.0","bzb5hmc2ggk","2432.5","","","{""Q0"":""deed""}","bead","deed"
"html-keyboard-response","498","1358030","0.0-498.0","bzb5hmc2ggk","null","bead","null","","",""
"audio-keyboard-response","499","1359799","0.0-499.0","bzb5hmc2ggk","null","","null","","",""
"html-keyboard-response","500","1361829","0.0-500.0","bzb5hmc2ggk","null","<div id=""countdown"">***</div>","null","","",""
"audio-keyboard-response","501","1362230","0.0-501.0","bzb5hmc2ggk","null","perceptual_learning_stimuli/f1/r_hedge.wav","null","","",""
"survey-text","502","1365754","0.0-502.0","bzb5hmc2ggk","3519.899999999907","","","{""Q0"":""hedge""}","hedge","hedge"
"html-keyboard-response","503","1367770","0.0-503.0","bzb5hmc2ggk","null","hedge","null","","",""
"audio-keyboard-response","504","1369530","0.0-504.0","bzb5hmc2ggk","null","","null","","",""
"html-keyboard-response","505","1371560","0.0-505.0","bzb5hmc2ggk","null","<div id=""countdown"">***</div>","null","","",""
"audio-keyboard-response","506","1371881","0.0-506.0","bzb5hmc2ggk","null","perceptual_learning_stimuli/f1/r_punch.wav","null","","",""
"survey-text","507","1375721","0.0-507.0","bzb5hmc2ggk","3837.2000000001863","","","{""Q0"":""punch""}","punch","punch"
"html-keyboard-response","508","1377740","0.0-508.0","bzb5hmc2ggk","null","punch","null","","",""
"audio-keyboard-response","509","1379494","0.0-509.0","bzb5hmc2ggk","null","","null","","",""
"html-keyboard-response","510","1381510","0.0-510.0","bzb5hmc2ggk","null","<div id=""countdown"">***</div>","null","","",""
"audio-keyboard-response","511","1381801","0.0-511.0","bzb5hmc2ggk","null","perceptual_learning_stimuli/f1/r_nip.wav","null","","",""
"survey-text","512","1385025","0.0-512.0","bzb5hmc2ggk","3220.8000000002794","","","{""Q0"":""lick""}","nip","lick"
"html-keyboard-response","513","1387042","0.0-513.0","bzb5hmc2ggk","null","nip","null","","",""
"audio-keyboard-response","514","1388801","0.0-514.0","bzb5hmc2ggk","null","","null","","",""
"html-keyboard-response","515","1390831","0.0-515.0","bzb5hmc2ggk","null","<div id=""countdown"">***</div>","null","","",""
"audio-keyboard-response","516","1391222","0.0-516.0","bzb5hmc2ggk","null","perceptual_learning_stimuli/f1/r_troop.wav","null","","",""
"survey-text","517","1394898","0.0-517.0","bzb5hmc2ggk","3672.2999999998137","","","{""Q0"":""turtle""}","troop","turtle"
"html-keyboard-response","518","1396922","0.0-518.0","bzb5hmc2ggk","null","troop","null","","",""
"audio-keyboard-response","519","1398681","0.0-519.0","bzb5hmc2ggk","null","","null","","",""
"html-keyboard-response","520","1400711","0.0-520.0","bzb5hmc2ggk","null","<div id=""countdown"">***</div>","null","","",""
"audio-keyboard-response","521","1401202","0.0-521.0","bzb5hmc2ggk","null","perceptual_learning_stimuli/f1/r_grease.wav","null","","",""
"survey-text","522","1410442","0.0-522.0","bzb5hmc2ggk","9235.700000000186","","","{""Q0"":""dirty""}","grease","dirty"
"html-keyboard-response","523","1412472","0.0-523.0","bzb5hmc2ggk","null","grease","null","","",""
"audio-keyboard-response","524","1414242","0.0-524.0","bzb5hmc2ggk","null","","null","","",""
"html-keyboard-response","525","1416272","0.0-525.0","bzb5hmc2ggk","null","<div id=""countdown"">***</div>","null","","",""
"audio-keyboard-response","526","1416733","0.0-526.0","bzb5hmc2ggk","null","perceptual_learning_stimuli/f1/r_spool.wav","null","","",""
"survey-text","527","1420802","0.0-527.0","bzb5hmc2ggk","4065.0999999996275","","","{""Q0"":""school""}","spool","school"
"html-keyboard-response","528","1422822","0.0-528.0","bzb5hmc2ggk","null","spool","null","","",""
"audio-keyboard-response","529","1424582","0.0-529.0","bzb5hmc2ggk","null","","null","","",""
"html-keyboard-response","530","1426617","0.0-530.0","bzb5hmc2ggk","null","<div id=""countdown"">***</div>","null","","",""
"audio-keyboard-response","531","1427163","0.0-531.0","bzb5hmc2ggk","null","perceptual_learning_stimuli/f1/r_forth.wav","null","","",""
"survey-text","532","1430729","0.0-532.0","bzb5hmc2ggk","3561","","","{""Q0"":""push""}","forth","push"
"html-keyboard-response","533","1432743","0.0-533.0","bzb5hmc2ggk","null","forth","null","","",""
"audio-keyboard-response","534","1434503","0.0-534.0","bzb5hmc2ggk","null","","null","","",""
"html-keyboard-response","535","1436533","0.0-535.0","bzb5hmc2ggk","null","<div id=""countdown"">***</div>","null","","",""
"audio-keyboard-response","536","1436774","0.0-536.0","bzb5hmc2ggk","null","perceptual_learning_stimuli/f1/r_took.wav","null","","",""
"survey-text","537","1439321","0.0-537.0","bzb5hmc2ggk","2544.2999999998137","","","{""Q0"":""tick""}","took","tick"
"html-keyboard-response","538","1441345","0.0-538.0","bzb5hmc2ggk","null","took","null","","",""
"audio-keyboard-response","539","1443103","0.0-539.0","bzb5hmc2ggk","null","","null","","",""
"html-keyboard-response","540","1445143","0.0-540.0","bzb5hmc2ggk","null","<div id=""countdown"">***</div>","null","","",""
"audio-keyboard-response","541","1445474","0.0-541.0","bzb5hmc2ggk","null","perceptual_learning_stimuli/f1/r_calm.wav","null","","",""
"survey-text","542","1448362","0.0-542.0","bzb5hmc2ggk","2883.899999999907","","","{""Q0"":""tell""}","calm","tell"
"html-keyboard-response","543","1450384","0.0-543.0","bzb5hmc2ggk","null","calm","null","","",""
"audio-keyboard-response","544","1452143","0.0-544.0","bzb5hmc2ggk","null","","null","","",""
"html-keyboard-response","545","1454183","0.0-545.0","bzb5hmc2ggk","null","<div id=""countdown"">***</div>","null","","",""
"audio-keyboard-response","546","1454425","0.0-546.0","bzb5hmc2ggk","null","perceptual_learning_stimuli/f1/r_new.wav","null","","",""
"survey-text","547","1457257","0.0-547.0","bzb5hmc2ggk","2829.3000000002794","","","{""Q0"":""loop""}","new","loop"
"html-keyboard-response","548","1459284","0.0-548.0","bzb5hmc2ggk","null","new","null","","",""
"audio-keyboard-response","549","1461044","0.0-549.0","bzb5hmc2ggk","null","","null","","",""
"html-keyboard-response","550","1463074","0.0-550.0","bzb5hmc2ggk","null","<div id=""countdown"">***</div>","null","","",""
"audio-keyboard-response","551","1463345","0.0-551.0","bzb5hmc2ggk","null","perceptual_learning_stimuli/f1/r_tall.wav","null","","",""
"survey-text","552","1465721","0.0-552.0","bzb5hmc2ggk","2372.9000000003725","","","{""Q0"":""tell""}","tall","tell"
"html-keyboard-response","553","1467744","0.0-553.0","bzb5hmc2ggk","null","tall","null","","",""
"audio-keyboard-response","554","1469514","0.0-554.0","bzb5hmc2ggk","null","","null","","",""
"html-keyboard-response","555","1477154","0.0-555.0","bzb5hmc2ggk","7118.899999999907","The next block will be similar to the last block as again you will receive feedback after you have typed in the word that you have heard. Please make sure to note if there is a difference between what you typed and what the word really is.","32","","",""
"html-keyboard-response","556","1479185","0.0-556.0","bzb5hmc2ggk","null","<div id=""countdown"">***</div>","null","","",""
"audio-keyboard-response","557","1479475","0.0-557.0","bzb5hmc2ggk","null","perceptual_learning_stimuli/f2/r_inch.wav","null","","",""
"survey-text","558","1484617","0.0-558.0","bzb5hmc2ggk","5139.100000000093","","","{""Q0"":""beach""}","inch","beach"
"html-keyboard-response","559","1486656","0.0-559.0","bzb5hmc2ggk","null","inch","null","","",""
"audio-keyboard-response","560","1488425","0.0-560.0","bzb5hmc2ggk","null","","null","","",""
"html-keyboard-response","561","1490446","0.0-561.0","bzb5hmc2ggk","null","<div id=""countdown"">***</div>","null","","",""
"audio-keyboard-response","562","1491057","0.0-562.0","bzb5hmc2ggk","null","perceptual_learning_stimuli/f2/r_probe.wav","null","","",""
"survey-text","563","1494818","0.0-563.0","bzb5hmc2ggk","3757.4000000003725","","","{""Q0"":""grab""}","probe","grab"
"html-keyboard-response","564","1496856","0.0-564.0","bzb5hmc2ggk","null","probe","null","","",""
"audio-keyboard-response","565","1498616","0.0-565.0","bzb5hmc2ggk","null","","null","","",""
"html-keyboard-response","566","1500626","0.0-566.0","bzb5hmc2ggk","null","<div id=""countdown"">***</div>","null","","",""
"audio-keyboard-response","567","1500997","0.0-567.0","bzb5hmc2ggk","null","perceptual_learning_stimuli/f2/r_fate.wav","null","","",""
"survey-text","568","1502929","0.0-568.0","bzb5hmc2ggk","1928.8999999999069","","","{""Q0"":""height""}","fate","height"
"html-keyboard-response","569","1504946","0.0-569.0","bzb5hmc2ggk","null","fate","null","","",""
"audio-keyboard-response","570","1506706","0.0-570.0","bzb5hmc2ggk","null","","null","","",""
"html-keyboard-response","571","1508746","0.0-571.0","bzb5hmc2ggk","null","<div id=""countdown"">***</div>","null","","",""
"audio-keyboard-response","572","1509097","0.0-572.0","bzb5hmc2ggk","null","perceptual_learning_stimuli/f2/r_perk.wav","null","","",""
"survey-text","573","1513129","0.0-573.0","bzb5hmc2ggk","4028.2000000001863","","","{""Q0"":""bite""}","perk","bite"
"html-keyboard-response","574","1515147","0.0-574.0","bzb5hmc2ggk","null","perk","null","","",""
"audio-keyboard-response","575","1516917","0.0-575.0","bzb5hmc2ggk","null","","null","","",""
"html-keyboard-response","576","1518937","0.0-576.0","bzb5hmc2ggk","null","<div id=""countdown"">***</div>","null","","",""
"audio-keyboard-response","577","1519498","0.0-577.0","bzb5hmc2ggk","null","perceptual_learning_stimuli/f2/r_scotch.wav","null","","",""
"survey-text","578","1523898","0.0-578.0","bzb5hmc2ggk","4396.299999999814","","","{""Q0"":""sketch""}","scotch","sketch"
"html-keyboard-response","579","1525927","0.0-579.0","bzb5hmc2ggk","null","scotch","null","","",""
"audio-keyboard-response","580","1527687","0.0-580.0","bzb5hmc2ggk","null","","null","","",""
"html-keyboard-response","581","1529718","0.0-581.0","bzb5hmc2ggk","null","<div id=""countdown"">***</div>","null","","",""
"audio-keyboard-response","582","1530028","0.0-582.0","bzb5hmc2ggk","null","perceptual_learning_stimuli/f2/r_lead.wav","null","","",""
"survey-text","583","1531850","0.0-583.0","bzb5hmc2ggk","1817.4000000003725","","","{""Q0"":""lead""}","lead","lead"
"html-keyboard-response","584","1533867","0.0-584.0","bzb5hmc2ggk","null","lead","null","","",""
"audio-keyboard-response","585","1535638","0.0-585.0","bzb5hmc2ggk","null","","null","","",""
"html-keyboard-response","586","1537648","0.0-586.0","bzb5hmc2ggk","null","<div id=""countdown"">***</div>","null","","",""
"audio-keyboard-response","587","1538029","0.0-587.0","bzb5hmc2ggk","null","perceptual_learning_stimuli/f2/r_charge.wav","null","","",""
"survey-text","588","1541682","0.0-588.0","bzb5hmc2ggk","3649.100000000093","","","{""Q0"":""challenge""}","charge","challenge"
"html-keyboard-response","589","1543718","0.0-589.0","bzb5hmc2ggk","null","charge","null","","",""
"audio-keyboard-response","590","1545478","0.0-590.0","bzb5hmc2ggk","null","","null","","",""
"html-keyboard-response","591","1547498","0.0-591.0","bzb5hmc2ggk","null","<div id=""countdown"">***</div>","null","","",""
"audio-keyboard-response","592","1547899","0.0-592.0","bzb5hmc2ggk","null","perceptual_learning_stimuli/f2/r_wrist.wav","null","","",""
"survey-text","593","1552577","0.0-593.0","bzb5hmc2ggk","4674.699999999721","","","{""Q0"":""waste""}","wrist","waste"
"html-keyboard-response","594","1554599","0.0-594.0","bzb5hmc2ggk","null","wrist","null","","",""
"audio-keyboard-response","595","1556369","0.0-595.0","bzb5hmc2ggk","null","","null","","",""
"html-keyboard-response","596","1558398","0.0-596.0","bzb5hmc2ggk","null","<div id=""countdown"">***</div>","null","","",""
"audio-keyboard-response","597","1558779","0.0-597.0","bzb5hmc2ggk","null","perceptual_learning_stimuli/f2/r_bolt.wav","null","","",""
"survey-text","598","1560978","0.0-598.0","bzb5hmc2ggk","2194.399999999907","","","{""Q0"":""belt""}","bolt","belt"
"html-keyboard-response","599","1562999","0.0-599.0","bzb5hmc2ggk","null","bolt","null","","",""
"audio-keyboard-response","600","1564759","0.0-600.0","bzb5hmc2ggk","null","","null","","",""
"html-keyboard-response","601","1566789","0.0-601.0","bzb5hmc2ggk","null","<div id=""countdown"">***</div>","null","","",""
"audio-keyboard-response","602","1567260","0.0-602.0","bzb5hmc2ggk","null","perceptual_learning_stimuli/f2/r_boost.wav","null","","",""
"survey-text","603","1569145","0.0-603.0","bzb5hmc2ggk","1881.6000000000931","","","{""Q0"":""boost""}","boost","boost"
"html-keyboard-response","604","1571159","0.0-604.0","bzb5hmc2ggk","null","boost","null","","",""
"audio-keyboard-response","605","1572919","0.0-605.0","bzb5hmc2ggk","null","","null","","",""
"html-keyboard-response","606","1574960","0.0-606.0","bzb5hmc2ggk","null","<div id=""countdown"">***</div>","null","","",""
"audio-keyboard-response","607","1575390","0.0-607.0","bzb5hmc2ggk","null","perceptual_learning_stimuli/f2/r_budge.wav","null","","",""
"survey-text","608","1577153","0.0-608.0","bzb5hmc2ggk","1759.2000000001863","","","{""Q0"":""budge""}","budge","budge"
"html-keyboard-response","609","1579179","0.0-609.0","bzb5hmc2ggk","null","budge","null","","",""
"audio-keyboard-response","610","1580950","0.0-610.0","bzb5hmc2ggk","null","","null","","",""
"html-keyboard-response","611","1582970","0.0-611.0","bzb5hmc2ggk","null","<div id=""countdown"">***</div>","null","","",""
"audio-keyboard-response","612","1583271","0.0-612.0","bzb5hmc2ggk","null","perceptual_learning_stimuli/f2/r_toss.wav","null","","",""
"survey-text","613","1585121","0.0-613.0","bzb5hmc2ggk","1846.7000000001863","","","{""Q0"":""toast""}","toss","toast"
"html-keyboard-response","614","1587140","0.0-614.0","bzb5hmc2ggk","null","toss","null","","",""
"audio-keyboard-response","615","1588910","0.0-615.0","bzb5hmc2ggk","null","","null","","",""
"html-keyboard-response","616","1590950","0.0-616.0","bzb5hmc2ggk","null","<div id=""countdown"">***</div>","null","","",""
"audio-keyboard-response","617","1591271","0.0-617.0","bzb5hmc2ggk","null","perceptual_learning_stimuli/f2/r_fed.wav","null","","",""
"survey-text","618","1593489","0.0-618.0","bzb5hmc2ggk","2214.7000000001863","","","{""Q0"":""head""}","fed","head"
"html-keyboard-response","619","1595520","0.0-619.0","bzb5hmc2ggk","null","fed","null","","",""
"audio-keyboard-response","620","1597280","0.0-620.0","bzb5hmc2ggk","null","","null","","",""
"html-keyboard-response","621","1599311","0.0-621.0","bzb5hmc2ggk","null","<div id=""countdown"">***</div>","null","","",""
"audio-keyboard-response","622","1599771","0.0-622.0","bzb5hmc2ggk","null","perceptual_learning_stimuli/f2/r_beast.wav","null","","",""
"survey-text","623","1601585","0.0-623.0","bzb5hmc2ggk","1810.4000000003725","","","{""Q0"":""beast""}","beast","beast"
"html-keyboard-response","624","1603621","0.0-624.0","bzb5hmc2ggk","null","beast","null","","",""
"audio-keyboard-response","625","1605381","0.0-625.0","bzb5hmc2ggk","null","","null","","",""
"html-keyboard-response","626","1607421","0.0-626.0","bzb5hmc2ggk","null","<div id=""countdown"">***</div>","null","","",""
"audio-keyboard-response","627","1607932","0.0-627.0","bzb5hmc2ggk","null","perceptual_learning_stimuli/f2/r_spice.wav","null","","",""
"survey-text","628","1610097","0.0-628.0","bzb5hmc2ggk","2161.5","","","{""Q0"":""spice""}","spice","spice"
"html-keyboard-response","629","1612111","0.0-629.0","bzb5hmc2ggk","null","spice","null","","",""
"audio-keyboard-response","630","1613871","0.0-630.0","bzb5hmc2ggk","null","","null","","",""
"html-keyboard-response","631","1615901","0.0-631.0","bzb5hmc2ggk","null","<div id=""countdown"">***</div>","null","","",""
"audio-keyboard-response","632","1616192","0.0-632.0","bzb5hmc2ggk","null","perceptual_learning_stimuli/f2/r_wean.wav","null","","",""
"survey-text","633","1618913","0.0-633.0","bzb5hmc2ggk","2718.1999999997206","","","{""Q0"":""wheel""}","wean","wheel"
"html-keyboard-response","634","1620941","0.0-634.0","bzb5hmc2ggk","null","wean","null","","",""
"audio-keyboard-response","635","1622701","0.0-635.0","bzb5hmc2ggk","null","","null","","",""
"html-keyboard-response","636","1624721","0.0-636.0","bzb5hmc2ggk","null","<div id=""countdown"">***</div>","null","","",""
"audio-keyboard-response","637","1624982","0.0-637.0","bzb5hmc2ggk","null","perceptual_learning_stimuli/f2/r_tick.wav","null","","",""
"survey-text","638","1626953","0.0-638.0","bzb5hmc2ggk","1967.3999999999069","","","{""Q0"":""take""}","tick","take"
"html-keyboard-response","639","1628982","0.0-639.0","bzb5hmc2ggk","null","tick","null","","",""
"audio-keyboard-response","640","1630752","0.0-640.0","bzb5hmc2ggk","null","","null","","",""
"html-keyboard-response","641","1632781","0.0-641.0","bzb5hmc2ggk","null","<div id=""countdown"">***</div>","null","","",""
"audio-keyboard-response","642","1632983","0.0-642.0","bzb5hmc2ggk","null","perceptual_learning_stimuli/f2/r_odd.wav","null","","",""
"survey-text","643","1635353","0.0-643.0","bzb5hmc2ggk","2366.899999999907","","","{""Q0"":""bud""}","odd","bud"
"html-keyboard-response","644","1637362","0.0-644.0","bzb5hmc2ggk","null","odd","null","","",""
"audio-keyboard-response","645","1639132","0.0-645.0","bzb5hmc2ggk","null","","null","","",""
"html-keyboard-response","646","1641162","0.0-646.0","bzb5hmc2ggk","null","<div id=""countdown"">***</div>","null","","",""
"audio-keyboard-response","647","1641413","0.0-647.0","bzb5hmc2ggk","null","perceptual_learning_stimuli/f2/r_cook.wav","null","","",""
"survey-text","648","1646329","0.0-648.0","bzb5hmc2ggk","4912.399999999907","","","{""Q0"":""pick""}","cook","pick"
"html-keyboard-response","649","1648343","0.0-649.0","bzb5hmc2ggk","null","cook","null","","",""
"audio-keyboard-response","650","1650103","0.0-650.0","bzb5hmc2ggk","null","","null","","",""
"html-keyboard-response","651","1652132","0.0-651.0","bzb5hmc2ggk","null","<div id=""countdown"">***</div>","null","","",""
"audio-keyboard-response","652","1652534","0.0-652.0","bzb5hmc2ggk","null","perceptual_learning_stimuli/f2/r_goof.wav","null","","",""
"survey-text","653","1654497","0.0-653.0","bzb5hmc2ggk","1959.8999999999069","","","{""Q0"":""goose""}","goof","goose"
"html-keyboard-response","654","1656514","0.0-654.0","bzb5hmc2ggk","null","goof","null","","",""
"audio-keyboard-response","655","1658273","0.0-655.0","bzb5hmc2ggk","null","","null","","",""
"html-keyboard-response","656","1660303","0.0-656.0","bzb5hmc2ggk","null","<div id=""countdown"">***</div>","null","","",""
"audio-keyboard-response","657","1660794","0.0-657.0","bzb5hmc2ggk","null","perceptual_learning_stimuli/f2/r_next.wav","null","","",""
"survey-text","658","1663697","0.0-658.0","bzb5hmc2ggk","2899.600000000093","","","{""Q0"":""mixed""}","next","mixed"
"html-keyboard-response","659","1665723","0.0-659.0","bzb5hmc2ggk","null","next","null","","",""
"audio-keyboard-response","660","1667493","0.0-660.0","bzb5hmc2ggk","null","","null","","",""
"html-keyboard-response","661","1669521","0.0-661.0","bzb5hmc2ggk","null","<div id=""countdown"">***</div>","null","","",""
"audio-keyboard-response","662","1669814","0.0-662.0","bzb5hmc2ggk","null","perceptual_learning_stimuli/f2/r_heat.wav","null","","",""
"survey-text","663","1671665","0.0-663.0","bzb5hmc2ggk","1847.3999999999069","","","{""Q0"":""heat""}","heat","heat"
"html-keyboard-response","664","1673674","0.0-664.0","bzb5hmc2ggk","null","heat","null","","",""
"audio-keyboard-response","665","1675434","0.0-665.0","bzb5hmc2ggk","null","","null","","",""
"html-keyboard-response","666","1677464","0.0-666.0","bzb5hmc2ggk","null","<div id=""countdown"">***</div>","null","","",""
"audio-keyboard-response","667","1677925","0.0-667.0","bzb5hmc2ggk","null","perceptual_learning_stimuli/f2/r_slog.wav","null","","",""
"survey-text","668","1680561","0.0-668.0","bzb5hmc2ggk","2632.5","","","{""Q0"":""slug""}","slog","slug"
"html-keyboard-response","669","1682584","0.0-669.0","bzb5hmc2ggk","null","slog","null","","",""
"audio-keyboard-response","670","1684345","0.0-670.0","bzb5hmc2ggk","null","","null","","",""
"html-keyboard-response","671","1686366","0.0-671.0","bzb5hmc2ggk","null","<div id=""countdown"">***</div>","null","","",""
"audio-keyboard-response","672","1686635","0.0-672.0","bzb5hmc2ggk","null","perceptual_learning_stimuli/f2/r_mess.wav","null","","",""
"survey-text","673","1688321","0.0-673.0","bzb5hmc2ggk","1682.1000000000931","","","{""Q0"":""ice""}","mess","ice"
"html-keyboard-response","674","1690325","0.0-674.0","bzb5hmc2ggk","null","mess","null","","",""
"audio-keyboard-response","675","1692085","0.0-675.0","bzb5hmc2ggk","null","","null","","",""
"html-keyboard-response","676","1694115","0.0-676.0","bzb5hmc2ggk","null","<div id=""countdown"">***</div>","null","","",""
"audio-keyboard-response","677","1694576","0.0-677.0","bzb5hmc2ggk","null","perceptual_learning_stimuli/f2/r_skid.wav","null","","",""
"survey-text","678","1696545","0.0-678.0","bzb5hmc2ggk","1965.7000000001863","","","{""Q0"":""skid""}","skid","skid"
"html-keyboard-response","679","1698574","0.0-679.0","bzb5hmc2ggk","null","skid","null","","",""
"audio-keyboard-response","680","1700335","0.0-680.0","bzb5hmc2ggk","null","","null","","",""
"html-keyboard-response","681","1702355","0.0-681.0","bzb5hmc2ggk","null","<div id=""countdown"">***</div>","null","","",""
"audio-keyboard-response","682","1702686","0.0-682.0","bzb5hmc2ggk","null","perceptual_learning_stimuli/f2/r_pest.wav","null","","",""
"survey-text","683","1705553","0.0-683.0","bzb5hmc2ggk","2863.600000000093","","","{""Q0"":""crest""}","pest","crest"
"html-keyboard-response","684","1707575","0.0-684.0","bzb5hmc2ggk","null","pest","null","","",""
"audio-keyboard-response","685","1709345","0.0-685.0","bzb5hmc2ggk","null","","null","","",""
"html-keyboard-response","686","1711375","0.0-686.0","bzb5hmc2ggk","null","<div id=""countdown"">***</div>","null","","",""
"audio-keyboard-response","687","1711857","0.0-687.0","bzb5hmc2ggk","null","perceptual_learning_stimuli/f2/r_paid.wav","null","","",""
"survey-text","688","1714065","0.0-688.0","bzb5hmc2ggk","2204.7999999998137","","","{""Q0"":""quite""}","paid","quite"
"html-keyboard-response","689","1716086","0.0-689.0","bzb5hmc2ggk","null","paid","null","","",""
"audio-keyboard-response","690","1717846","0.0-690.0","bzb5hmc2ggk","null","","null","","",""
"html-keyboard-response","691","1719866","0.0-691.0","bzb5hmc2ggk","null","<div id=""countdown"">***</div>","null","","",""
"audio-keyboard-response","692","1720147","0.0-692.0","bzb5hmc2ggk","null","perceptual_learning_stimuli/f2/r_lid.wav","null","","",""
"survey-text","693","1721777","0.0-693.0","bzb5hmc2ggk","1626.6000000000931","","","{""Q0"":""led""}","lid","led"
"html-keyboard-response","694","1723796","0.0-694.0","bzb5hmc2ggk","null","lid","null","","",""
"audio-keyboard-response","695","1725567","0.0-695.0","bzb5hmc2ggk","null","","null","","",""
"html-keyboard-response","696","1727596","0.0-696.0","bzb5hmc2ggk","null","<div id=""countdown"">***</div>","null","","",""
"audio-keyboard-response","697","1728058","0.0-697.0","bzb5hmc2ggk","null","perceptual_learning_stimuli/f2/r_scare.wav","null","","",""
"survey-text","698","1731761","0.0-698.0","bzb5hmc2ggk","3700.3000000002794","","","{""Q0"":""scatter""}","scare","scatter"
"html-keyboard-response","699","1733787","0.0-699.0","bzb5hmc2ggk","null","scare","null","","",""
"audio-keyboard-response","700","1735557","0.0-700.0","bzb5hmc2ggk","null","","null","","",""
"html-keyboard-response","701","1737577","0.0-701.0","bzb5hmc2ggk","null","<div id=""countdown"">***</div>","null","","",""
"audio-keyboard-response","702","1737818","0.0-702.0","bzb5hmc2ggk","null","perceptual_learning_stimuli/f2/r_teen.wav","null","","",""
"survey-text","703","1740505","0.0-703.0","bzb5hmc2ggk","2683.7999999998137","","","{""Q0"":""tilt""}","teen","tilt"
"html-keyboard-response","704","1742517","0.0-704.0","bzb5hmc2ggk","null","teen","null","","",""
"audio-keyboard-response","705","1744287","0.0-705.0","bzb5hmc2ggk","null","","null","","",""
"html-keyboard-response","706","1746317","0.0-706.0","bzb5hmc2ggk","null","<div id=""countdown"">***</div>","null","","",""
"audio-keyboard-response","707","1746638","0.0-707.0","bzb5hmc2ggk","null","perceptual_learning_stimuli/f2/r_get.wav","null","","",""
"survey-text","708","1748713","0.0-708.0","bzb5hmc2ggk","2071.5","","","{""Q0"":""get""}","get","get"
"html-keyboard-response","709","1750718","0.0-709.0","bzb5hmc2ggk","null","get","null","","",""
"audio-keyboard-response","710","1752488","0.0-710.0","bzb5hmc2ggk","null","","null","","",""
"html-keyboard-response","711","1754518","0.0-711.0","bzb5hmc2ggk","null","<div id=""countdown"">***</div>","null","","",""
"audio-keyboard-response","712","1754949","0.0-712.0","bzb5hmc2ggk","null","perceptual_learning_stimuli/f2/r_free1.wav","null","","",""
"survey-text","713","1757217","0.0-713.0","bzb5hmc2ggk","2264.600000000093","","","{""Q0"":""furry""}","free1","furry"
"html-keyboard-response","714","1759258","0.0-714.0","bzb5hmc2ggk","null","free1","null","","",""
"audio-keyboard-response","715","1761018","0.0-715.0","bzb5hmc2ggk","null","","null","","",""
"html-keyboard-response","716","1763058","0.0-716.0","bzb5hmc2ggk","null","<div id=""countdown"">***</div>","null","","",""
"audio-keyboard-response","717","1763479","0.0-717.0","bzb5hmc2ggk","null","perceptual_learning_stimuli/f2/r_skit.wav","null","","",""
"survey-text","718","1765745","0.0-718.0","bzb5hmc2ggk","2262.7000000001863","","","{""Q0"":""skit""}","skit","skit"
"html-keyboard-response","719","1767749","0.0-719.0","bzb5hmc2ggk","null","skit","null","","",""
"audio-keyboard-response","720","1769518","0.0-720.0","bzb5hmc2ggk","null","","null","","",""
"html-keyboard-response","721","1771558","0.0-721.0","bzb5hmc2ggk","null","<div id=""countdown"">***</div>","null","","",""
"audio-keyboard-response","722","1772000","0.0-722.0","bzb5hmc2ggk","null","perceptual_learning_stimuli/f2/r_grit.wav","null","","",""
"survey-text","723","1775753","0.0-723.0","bzb5hmc2ggk","3749.6999999997206","","","{""Q0"":""grunt""}","grit","grunt"
"html-keyboard-response","724","1777779","0.0-724.0","bzb5hmc2ggk","null","grit","null","","",""
"audio-keyboard-response","725","1779549","0.0-725.0","bzb5hmc2ggk","null","","null","","",""
"html-keyboard-response","726","1781570","0.0-726.0","bzb5hmc2ggk","null","<div id=""countdown"">***</div>","null","","",""
"audio-keyboard-response","727","1781840","0.0-727.0","bzb5hmc2ggk","null","perceptual_learning_stimuli/f2/r_hit.wav","null","","",""
"survey-text","728","1783713","0.0-728.0","bzb5hmc2ggk","1869.8999999999069","","","{""Q0"":""height""}","hit","height"
"html-keyboard-response","729","1785719","0.0-729.0","bzb5hmc2ggk","null","hit","null","","",""
"audio-keyboard-response","730","1787489","0.0-730.0","bzb5hmc2ggk","null","","null","","",""
"html-keyboard-response","731","1789509","0.0-731.0","bzb5hmc2ggk","null","<div id=""countdown"">***</div>","null","","",""
"audio-keyboard-response","732","1789870","0.0-732.0","bzb5hmc2ggk","null","perceptual_learning_stimuli/f2/r_reek.wav","null","","",""
"survey-text","733","1792537","0.0-733.0","bzb5hmc2ggk","2663.1999999997206","","","{""Q0"":""right""}","reek","right"
"html-keyboard-response","734","1794550","0.0-734.0","bzb5hmc2ggk","null","reek","null","","",""
"audio-keyboard-response","735","1796320","0.0-735.0","bzb5hmc2ggk","null","","null","","",""
"html-keyboard-response","736","1798350","0.0-736.0","bzb5hmc2ggk","null","<div id=""countdown"">***</div>","null","","",""
"audio-keyboard-response","737","1798771","0.0-737.0","bzb5hmc2ggk","null","perceptual_learning_stimuli/f2/r_flood.wav","null","","",""
"survey-text","738","1800801","0.0-738.0","bzb5hmc2ggk","2026.7000000001863","","","{""Q0"":""flood""}","flood","flood"
"html-keyboard-response","739","1802830","0.0-739.0","bzb5hmc2ggk","null","flood","null","","",""
"audio-keyboard-response","740","1804591","0.0-740.0","bzb5hmc2ggk","null","","null","","",""
"html-keyboard-response","741","1806621","0.0-741.0","bzb5hmc2ggk","null","<div id=""countdown"">***</div>","null","","",""
"audio-keyboard-response","742","1806971","0.0-742.0","bzb5hmc2ggk","null","perceptual_learning_stimuli/f2/r_cease.wav","null","","",""
"survey-text","743","1815801","0.0-743.0","bzb5hmc2ggk","8826.399999999907","","","{""Q0"":""fees""}","cease","fees"
"html-keyboard-response","744","1817823","0.0-744.0","bzb5hmc2ggk","null","cease","null","","",""
"audio-keyboard-response","745","1819581","0.0-745.0","bzb5hmc2ggk","null","","null","","",""
"html-keyboard-response","746","1821601","0.0-746.0","bzb5hmc2ggk","null","<div id=""countdown"">***</div>","null","","",""
"audio-keyboard-response","747","1821932","0.0-747.0","bzb5hmc2ggk","null","perceptual_learning_stimuli/f2/r_pinch.wav","null","","",""
"survey-text","748","1824033","0.0-748.0","bzb5hmc2ggk","2097.600000000093","","","{""Q0"":""punch""}","pinch","punch"
"html-keyboard-response","749","1826052","0.0-749.0","bzb5hmc2ggk","null","pinch","null","","",""
"audio-keyboard-response","750","1827811","0.0-750.0","bzb5hmc2ggk","null","","null","","",""
"html-keyboard-response","751","1829841","0.0-751.0","bzb5hmc2ggk","null","<div id=""countdown"">***</div>","null","","",""
"audio-keyboard-response","752","1830122","0.0-752.0","bzb5hmc2ggk","null","perceptual_learning_stimuli/f2/r_mean.wav","null","","",""
"survey-text","753","1839569","0.0-753.0","bzb5hmc2ggk","9443.19999999972","","","{""Q0"":""bottle""}","mean","bottle"
"html-keyboard-response","754","1841592","0.0-754.0","bzb5hmc2ggk","null","mean","null","","",""
"audio-keyboard-response","755","1843362","0.0-755.0","bzb5hmc2ggk","null","","null","","",""
"html-keyboard-response","756","1845392","0.0-756.0","bzb5hmc2ggk","null","<div id=""countdown"">***</div>","null","","",""
"audio-keyboard-response","757","1845672","0.0-757.0","bzb5hmc2ggk","null","perceptual_learning_stimuli/f2/r_raw.wav","null","","",""
"survey-text","758","1848416","0.0-758.0","bzb5hmc2ggk","2740.5999999996275","","","{""Q0"":""grow""}","raw","grow"
"html-keyboard-response","759","1850442","0.0-759.0","bzb5hmc2ggk","null","raw","null","","",""
"audio-keyboard-response","760","1852202","0.0-760.0","bzb5hmc2ggk","null","","null","","",""
"html-keyboard-response","761","1854232","0.0-761.0","bzb5hmc2ggk","null","<div id=""countdown"">***</div>","null","","",""
"audio-keyboard-response","762","1854503","0.0-762.0","bzb5hmc2ggk","null","perceptual_learning_stimuli/f2/r_end.wav","null","","",""
"survey-text","763","1856584","0.0-763.0","bzb5hmc2ggk","2077.899999999907","","","{""Q0"":""bend""}","end","bend"
"html-keyboard-response","764","1858602","0.0-764.0","bzb5hmc2ggk","null","end","null","","",""
"audio-keyboard-response","765","1860362","0.0-765.0","bzb5hmc2ggk","null","","null","","",""
"html-keyboard-response","766","1862402","0.0-766.0","bzb5hmc2ggk","null","<div id=""countdown"">***</div>","null","","",""
"audio-keyboard-response","767","1862883","0.0-767.0","bzb5hmc2ggk","null","perceptual_learning_stimuli/f2/r_crutch.wav","null","","",""
"survey-text","768","1866096","0.0-768.0","bzb5hmc2ggk","3209.5","","","{""Q0"":""touch""}","crutch","touch"
"html-keyboard-response","769","1868112","0.0-769.0","bzb5hmc2ggk","null","crutch","null","","",""
"audio-keyboard-response","770","1869883","0.0-770.0","bzb5hmc2ggk","null","","null","","",""
"html-keyboard-response","771","1871912","0.0-771.0","bzb5hmc2ggk","null","<div id=""countdown"">***</div>","null","","",""
"audio-keyboard-response","772","1872193","0.0-772.0","bzb5hmc2ggk","null","perceptual_learning_stimuli/f2/r_ray.wav","null","","",""
"survey-text","773","1874408","0.0-773.0","bzb5hmc2ggk","2211.5","","","{""Q0"":""right""}","ray","right"
"html-keyboard-response","774","1876423","0.0-774.0","bzb5hmc2ggk","null","ray","null","","",""
"audio-keyboard-response","775","1878180","0.0-775.0","bzb5hmc2ggk","null","","null","","",""
"html-keyboard-response","776","1880213","0.0-776.0","bzb5hmc2ggk","null","<div id=""countdown"">***</div>","null","","",""
"audio-keyboard-response","777","1880584","0.0-777.0","bzb5hmc2ggk","null","perceptual_learning_stimuli/f2/r_rug.wav","null","","",""
"survey-text","778","1886080","0.0-778.0","bzb5hmc2ggk","5492.799999999814","","","{""Q0"":""red""}","rug","red"
"html-keyboard-response","779","1888103","0.0-779.0","bzb5hmc2ggk","null","rug","null","","",""
"audio-keyboard-response","780","1889859","0.0-780.0","bzb5hmc2ggk","null","","null","","",""
"html-keyboard-response","781","1891884","0.0-781.0","bzb5hmc2ggk","null","<div id=""countdown"">***</div>","null","","",""
"audio-keyboard-response","782","1892114","0.0-782.0","bzb5hmc2ggk","null","perceptual_learning_stimuli/f2/r_kit.wav","null","","",""
"survey-text","783","1893872","0.0-783.0","bzb5hmc2ggk","1754.2999999998137","","","{""Q0"":""kit""}","kit","kit"
"html-keyboard-response","784","1895894","0.0-784.0","bzb5hmc2ggk","null","kit","null","","",""
"audio-keyboard-response","785","1897654","0.0-785.0","bzb5hmc2ggk","null","","null","","",""
"html-keyboard-response","786","1899684","0.0-786.0","bzb5hmc2ggk","null","<div id=""countdown"">***</div>","null","","",""
"audio-keyboard-response","787","1900065","0.0-787.0","bzb5hmc2ggk","null","perceptual_learning_stimuli/f2/r_notch.wav","null","","",""
"survey-text","788","1905585","0.0-788.0","bzb5hmc2ggk","5515.899999999907","","","{""Q0"":""touch""}","notch","touch"
"html-keyboard-response","789","1907613","0.0-789.0","bzb5hmc2ggk","null","notch","null","","",""
"audio-keyboard-response","790","1909385","0.0-790.0","bzb5hmc2ggk","null","","null","","",""
"html-keyboard-response","791","1911415","0.0-791.0","bzb5hmc2ggk","null","<div id=""countdown"">***</div>","null","","",""
"audio-keyboard-response","792","1911787","0.0-792.0","bzb5hmc2ggk","null","perceptual_learning_stimuli/f2/r_nest.wav","null","","",""
"survey-text","793","1914193","0.0-793.0","bzb5hmc2ggk","2403.399999999907","","","{""Q0"":""rest""}","nest","rest"
"html-keyboard-response","794","1916216","0.0-794.0","bzb5hmc2ggk","null","nest","null","","",""
"audio-keyboard-response","795","1917986","0.0-795.0","bzb5hmc2ggk","null","","null","","",""
"html-keyboard-response","796","1920016","0.0-796.0","bzb5hmc2ggk","null","<div id=""countdown"">***</div>","null","","",""
"audio-keyboard-response","797","1920347","0.0-797.0","bzb5hmc2ggk","null","perceptual_learning_stimuli/f2/r_sup.wav","null","","",""
"survey-text","798","1922569","0.0-798.0","bzb5hmc2ggk","2218.6999999997206","","","{""Q0"":""cut""}","sup","cut"
"html-keyboard-response","799","1924576","0.0-799.0","bzb5hmc2ggk","null","sup","null","","",""
"audio-keyboard-response","800","1926346","0.0-800.0","bzb5hmc2ggk","null","","null","","",""
"html-keyboard-response","801","1928358","0.0-801.0","bzb5hmc2ggk","null","<div id=""countdown"">***</div>","null","","",""
"audio-keyboard-response","802","1928677","0.0-802.0","bzb5hmc2ggk","null","perceptual_learning_stimuli/f2/r_deep.wav","null","","",""
"survey-text","803","1930673","0.0-803.0","bzb5hmc2ggk","1992.3999999999069","","","{""Q0"":""deep""}","deep","deep"
"html-keyboard-response","804","1932676","0.0-804.0","bzb5hmc2ggk","null","deep","null","","",""
"audio-keyboard-response","805","1934437","0.0-805.0","bzb5hmc2ggk","null","","null","","",""
"html-keyboard-response","806","1941442","0.0-806.0","bzb5hmc2ggk","6484.600000000093","The next block will be similar to the last block as again you will receive feedback after you have typed in the word that you have heard. Please make sure to note if there is a difference between what you typed and what the word really is.","32","","",""
"html-keyboard-response","807","1943477","0.0-807.0","bzb5hmc2ggk","null","<div id=""countdown"">***</div>","null","","",""
"audio-keyboard-response","808","1943768","0.0-808.0","bzb5hmc2ggk","null","perceptual_learning_stimuli/f3/r_caught.wav","null","","",""
"survey-text","809","1947393","0.0-809.0","bzb5hmc2ggk","3621.7999999998137","","","{""Q0"":""cut""}","caught","cut"
"html-keyboard-response","810","1949407","0.0-810.0","bzb5hmc2ggk","null","caught","null","","",""
"audio-keyboard-response","811","1951177","0.0-811.0","bzb5hmc2ggk","null","","null","","",""
"html-keyboard-response","812","1953197","0.0-812.0","bzb5hmc2ggk","null","<div id=""countdown"">***</div>","null","","",""
"audio-keyboard-response","813","1953598","0.0-813.0","bzb5hmc2ggk","null","perceptual_learning_stimuli/f3/r_goat.wav","null","","",""
"survey-text","814","1955929","0.0-814.0","bzb5hmc2ggk","2327.100000000093","","","{""Q0"":""guilt""}","goat","guilt"
"html-keyboard-response","815","1957938","0.0-815.0","bzb5hmc2ggk","null","goat","null","","",""
"audio-keyboard-response","816","1959708","0.0-816.0","bzb5hmc2ggk","null","","null","","",""
"html-keyboard-response","817","1961738","0.0-817.0","bzb5hmc2ggk","null","<div id=""countdown"">***</div>","null","","",""
"audio-keyboard-response","818","1962028","0.0-818.0","bzb5hmc2ggk","null","perceptual_learning_stimuli/f3/r_gin.wav","null","","",""
"survey-text","819","1966200","0.0-819.0","bzb5hmc2ggk","4169.100000000093","","","{""Q0"":""dinner""}","gin","dinner"
"html-keyboard-response","820","1968227","0.0-820.0","bzb5hmc2ggk","null","gin","null","","",""
"audio-keyboard-response","821","1969998","0.0-821.0","bzb5hmc2ggk","null","","null","","",""
"html-keyboard-response","822","1972038","0.0-822.0","bzb5hmc2ggk","null","<div id=""countdown"">***</div>","null","","",""
"audio-keyboard-response","823","1972319","0.0-823.0","bzb5hmc2ggk","null","perceptual_learning_stimuli/f3/r_jay.wav","null","","",""
"survey-text","824","1978809","0.0-824.0","bzb5hmc2ggk","6486.399999999907","","","{""Q0"":""jay""}","jay","jay"
"html-keyboard-response","825","1980818","0.0-825.0","bzb5hmc2ggk","null","jay","null","","",""
"audio-keyboard-response","826","1982588","0.0-826.0","bzb5hmc2ggk","null","","null","","",""
"html-keyboard-response","827","1984618","0.0-827.0","bzb5hmc2ggk","null","<div id=""countdown"">***</div>","null","","",""
"audio-keyboard-response","828","1984959","0.0-828.0","bzb5hmc2ggk","null","perceptual_learning_stimuli/f3/r_cry.wav","null","","",""
"survey-text","829","1987281","0.0-829.0","bzb5hmc2ggk","2317.5","","","{""Q0"":""try""}","cry","try"
"html-keyboard-response","830","1989309","0.0-830.0","bzb5hmc2ggk","null","cry","null","","",""
"audio-keyboard-response","831","1991068","0.0-831.0","bzb5hmc2ggk","null","","null","","",""
"html-keyboard-response","832","1993099","0.0-832.0","bzb5hmc2ggk","null","<div id=""countdown"">***</div>","null","","",""
"audio-keyboard-response","833","1993330","0.0-833.0","bzb5hmc2ggk","null","perceptual_learning_stimuli/f3/r_he.wav","null","","",""
"survey-text","834","1997441","0.0-834.0","bzb5hmc2ggk","4107.5","","","{""Q0"":""he""}","he","he"
"html-keyboard-response","835","1999469","0.0-835.0","bzb5hmc2ggk","null","he","null","","",""
"audio-keyboard-response","836","2001229","0.0-836.0","bzb5hmc2ggk","null","","null","","",""
"html-keyboard-response","837","2003239","0.0-837.0","bzb5hmc2ggk","null","<div id=""countdown"">***</div>","null","","",""
"audio-keyboard-response","838","2003620","0.0-838.0","bzb5hmc2ggk","null","perceptual_learning_stimuli/f3/r_chart.wav","null","","",""
