"trial_type","trial_index","time_elapsed","internal_node_id","rt","stimulus","button_pressed","key_press","rt_audio","designation","responded_to_audio","N","TYPE","TOTALHIT","TOTALFA","CURRENT_HIT","CURRENT_FA","STATUS","HIT","FA","expt_trajectory"
"pavlovia","0","4","0.0-0.0","","","","","","","","","","","","","","","","",""
"html-button-response","1","25644","0.0-1.0-0.0-0.0","25637","<p>You will now complete an auditory memory task. This will take approximately 15 minutes.</p><p>To learn more about the task, please advance to the next screen.","0","","","","","","","","","","","","","",""
"html-button-response","2","35907","0.0-1.0-0.0-1.0","10011","<p>In this task, you will hear a sequence of letters. The letters will be presented one at a time, and a new sound will play every 2.5 seconds.<p>Your job is to listen closely to these sounds for specific kinds of <b>repeats</b>.</p>","0","","","","","","","","","","","","","",""
"html-button-response","3","49411","0.0-1.0-0.0-2.0","13248","<p>If you are asked to complete a <b>1-back</b>, you must press SPACEBAR every time the current sound matches the sound presented <b>one</b> position previously.<br>Otherwise, you do not have to respond.</p><p>For example, imagine you heard the following sound sequence:</p><p style='color:darkblue'>B...D...<b style='color:red'>D</b>...F...<b style='color:red'>F</b>...<b style='color:red'>F</b>...C...E...</p><p>You would respond to the sounds printed in <b style='color:red'>red</b>, as these were repeated <b>one</b> position previously.</p><p></p>","0","","","","","","","","","","","","","",""
"html-button-response","4","58875","0.0-1.0-0.0-3.0","9200","<p>If you are asked to complete a <b>2-back</b>, you must press SPACEBAR every time the current sound matches the sound presented <b>two</b> positions previously.<br>Otherwise, you do not have to respond.</p><p>For example, imagine you heard the following sound sequence:</p><p style='color:darkblue'>B...D...<b style='color:red'>B</b>...C...<b style='color:red'>B</b>...<b style='color:red'>C</b>...E...F...</p><p>You would respond to the sounds printed in <b style='color:red'>red</b>, as these were repeated <b>two</b> positions previously.</p><p></p>","0","","","","","","","","","","","","","",""
"html-button-response","5","64771","0.0-1.0-0.0-4.0","5634","<p>If you are asked to complete a <b>3-back</b>, you must press SPACEBAR every time the current sound matches the sound presented <b>three</b> positions previously.<br>Otherwise, you do not have to respond.</p><p>For example, imagine you heard the following sound sequence:</p><p style='color:darkblue'>B...D...G...<b style='color:red'>B</b>...<b style='color:red'>D</b>...C...E...<b style='color:red'>D</b>...</p><p>You would respond to the sounds printed in <b style='color:red'>red</b>, as these were repeated <b>three</b> positions previously.</p><p></p>","0","","","","","","","","","","","","","",""
"html-button-response","6","71379","0.0-1.0-0.0-5.0","6342","<p>As you can imagine, the task becomes harder as the delay (1, 2, or 3) increases.</p><p>Please make sure you are in a quiet listening environment and free from distraction.<br>You will receive breaks approximately every 90 seconds to minimize fatigue.</p>","0","","","","","","","","","","","","","",""
"html-button-response","7","75531","0.0-1.0-0.0-6.0","3896","<p>This concludes the introduction to the memory task.</p><p>Please advance to the next screen to receive further instructions.</p>","0","","","","","","","","","","","","","",""
"html-button-response","8","80051","0.0-1.0-1.0-0.0","4262","<p>You will now complete a <strong>1-back.</strong></p><p>Remember, this means that you should press SPACEBAR every time the sound you hear matches the one presented <strong>1</strong> position(s) previously.</p>","0","","","","","","","","","","","","","",""
"audio-keyboard-response","9","82574","0.0-1.0-1.0-1.0-0.0","null","letters/2.wav","","null","null","n-back-trial","0","1","FIRSTS","0","0","0","0","","","",""
"audio-keyboard-response","10","85076","0.0-1.0-1.0-1.1-0.1","null","letters/2.wav","","null","null","n-back-trial","0","1","T","0","0","0","0","","","",""
"audio-keyboard-response","11","87593","0.0-1.0-1.0-1.2-0.2","null","letters/1.wav","","null","null","n-back-trial","0","1","NT","0","0","0","0","","","",""
"audio-keyboard-response","12","90114","0.0-1.0-1.0-1.3-0.3","null","letters/4.wav","","null","null","n-back-trial","0","1","NT","0","0","0","0","","","",""
"audio-keyboard-response","13","92634","0.0-1.0-1.0-1.4-0.4","811","letters/4.wav","","32","811","n-back-trial","1","1","T","1","0","1","0","","","",""
"audio-keyboard-response","14","95154","0.0-1.0-1.0-1.5-0.5","null","letters/1.wav","","null","null","n-back-trial","0","1","NT","1","0","0","0","","","",""
"audio-keyboard-response","15","97664","0.0-1.0-1.0-1.6-0.6","null","letters/5.wav","","null","null","n-back-trial","0","1","NT","1","0","0","0","","","",""
"audio-keyboard-response","16","100184","0.0-1.0-1.0-1.7-0.7","null","letters/1.wav","","null","null","n-back-trial","0","1","NT","1","0","0","0","","","",""
"audio-keyboard-response","17","102704","0.0-1.0-1.0-1.8-0.8","760","letters/1.wav","","32","760","n-back-trial","1","1","T","2","0","1","0","","","",""
"audio-keyboard-response","18","105225","0.0-1.0-1.0-1.9-0.9","null","letters/5.wav","","null","null","n-back-trial","0","1","NT","2","0","0","0","","","",""
"audio-keyboard-response","19","107735","0.0-1.0-1.0-1.10-0.10","760","letters/5.wav","","32","760","n-back-trial","1","1","T","3","0","1","0","","","",""
"audio-keyboard-response","20","110255","0.0-1.0-1.0-1.11-0.11","null","letters/2.wav","","null","null","n-back-trial","0","1","NT","3","0","0","0","","","",""
"audio-keyboard-response","21","112775","0.0-1.0-1.0-1.12-0.12","null","letters/5.wav","","null","null","n-back-trial","0","1","NT","3","0","0","0","","","",""
"audio-keyboard-response","22","115295","0.0-1.0-1.0-1.13-0.13","680","letters/5.wav","","32","680","n-back-trial","1","1","T","4","0","1","0","","","",""
"audio-keyboard-response","23","117815","0.0-1.0-1.0-1.14-0.14","699","letters/5.wav","","32","699","n-back-trial","1","1","T","5","0","1","0","","","",""
"audio-keyboard-response","24","120325","0.0-1.0-1.0-1.15-0.15","null","letters/2.wav","","null","null","n-back-trial","0","1","NT","5","0","0","0","","","",""
"audio-keyboard-response","25","122845","0.0-1.0-1.0-1.16-0.16","null","letters/5.wav","","null","null","n-back-trial","0","1","NT","5","0","0","0","","","",""
"audio-keyboard-response","26","125355","0.0-1.0-1.0-1.17-0.17","null","letters/6.wav","","null","null","n-back-trial","0","1","NT","5","0","0","0","","","",""
"audio-keyboard-response","27","127866","0.0-1.0-1.0-1.18-0.18","null","letters/7.wav","","null","null","n-back-trial","0","1","NT","5","0","0","0","","","",""
"audio-keyboard-response","28","130376","0.0-1.0-1.0-1.19-0.19","null","letters/6.wav","","null","null","n-back-trial","0","1","NT","5","0","0","0","","","",""
"audio-keyboard-response","29","132896","0.0-1.0-1.0-1.20-0.20","null","letters/3.wav","","null","null","n-back-trial","0","1","NT","5","0","0","0","","","",""
"audio-keyboard-response","30","135406","0.0-1.0-1.0-1.21-0.21","null","letters/6.wav","","null","null","n-back-trial","0","1","NT","5","0","0","0","","","",""
"audio-keyboard-response","31","137927","0.0-1.0-1.0-1.22-0.22","null","letters/2.wav","","null","null","n-back-trial","0","1","NT","5","0","0","0","","","",""
"audio-keyboard-response","32","140447","0.0-1.0-1.0-1.23-0.23","null","letters/1.wav","","null","null","n-back-trial","0","1","NT","5","0","0","0","","","",""
"audio-keyboard-response","33","142967","0.0-1.0-1.0-1.24-0.24","null","letters/2.wav","","null","null","n-back-trial","0","1","NT","5","0","0","0","","","",""
"audio-keyboard-response","34","145487","0.0-1.0-1.0-1.25-0.25","869","letters/2.wav","","32","869","n-back-trial","1","1","T","6","0","1","0","","","",""
"audio-keyboard-response","35","147997","0.0-1.0-1.0-1.26-0.26","720","letters/2.wav","","32","720","n-back-trial","1","1","T","7","0","1","0","","","",""
"audio-keyboard-response","36","150517","0.0-1.0-1.0-1.27-0.27","771","letters/2.wav","","32","771","n-back-trial","1","1","T","8","0","1","0","","","",""
"audio-keyboard-response","37","153037","0.0-1.0-1.0-1.28-0.28","null","letters/3.wav","","null","null","n-back-trial","0","1","NT","8","0","0","0","","","",""
"audio-keyboard-response","38","155548","0.0-1.0-1.0-1.29-0.29","null","letters/4.wav","","null","null","n-back-trial","0","1","NT","8","0","0","0","","","",""
"audio-keyboard-response","39","158058","0.0-1.0-1.0-1.30-0.30","781","letters/4.wav","","32","781","n-back-trial","1","1","T","9","0","1","0","","","",""
"html-button-response","40","166476","0.0-1.0-1.0-2.0","8416","<p>You may take a short break if you wish.</p><p>Click the button below when you are ready to continue.</p>","0","","","n-back-run-summary","","1","","","","","","+1","9","0",""
"html-button-response","41","170251","0.0-1.0-1.1-0.1","3773","<p>You will now complete a <strong>2-back.</strong></p><p>Remember, this means that you should press SPACEBAR every time the sound you hear matches the one presented <strong>2</strong> position(s) previously.</p>","0","","","","","","","","","","","","","",""
"audio-keyboard-response","42","172768","0.0-1.0-1.1-1.31-0.31","null","letters/3.wav","","null","null","n-back-trial","0","2","FIRSTS","0","0","0","0","","","",""
"audio-keyboard-response","43","175278","0.0-1.0-1.1-1.32-0.32","null","letters/8.wav","","null","null","n-back-trial","0","2","FIRSTS","0","0","0","0","","","",""
"audio-keyboard-response","44","177789","0.0-1.0-1.1-1.33-0.33","720","letters/3.wav","","32","720","n-back-trial","1","2","T","1","0","1","0","","","",""
"audio-keyboard-response","45","180304","0.0-1.0-1.1-1.34-0.34","null","letters/7.wav","","null","null","n-back-trial","0","2","NT","1","0","0","0","","","",""
"audio-keyboard-response","46","182819","0.0-1.0-1.1-1.35-0.35","null","letters/2.wav","","null","null","n-back-trial","0","2","NT","1","0","0","0","","","",""
"audio-keyboard-response","47","185339","0.0-1.0-1.1-1.36-0.36","741","letters/7.wav","","32","741","n-back-trial","1","2","T","2","0","1","0","","","",""
"audio-keyboard-response","48","187849","0.0-1.0-1.1-1.37-0.37","null","letters/1.wav","","null","null","n-back-trial","0","2","NT","2","0","0","0","","","",""
"audio-keyboard-response","49","190370","0.0-1.0-1.1-1.38-0.38","null","letters/2.wav","","null","null","n-back-trial","0","2","NT","2","0","0","0","","","",""
"audio-keyboard-response","50","192880","0.0-1.0-1.1-1.39-0.39","null","letters/6.wav","","null","null","n-back-trial","0","2","NT","2","0","0","0","","","",""
"audio-keyboard-response","51","195390","0.0-1.0-1.1-1.40-0.40","null","letters/7.wav","","null","null","n-back-trial","0","2","NT","2","0","0","0","","","",""
"audio-keyboard-response","52","197910","0.0-1.0-1.1-1.41-0.41","1000","letters/6.wav","","32","1000","n-back-trial","1","2","T","3","0","1","0","","","",""
"audio-keyboard-response","53","200430","0.0-1.0-1.1-1.42-0.42","920","letters/7.wav","","32","920","n-back-trial","1","2","T","4","0","1","0","","","",""
"audio-keyboard-response","54","202940","0.0-1.0-1.1-1.43-0.43","781","letters/6.wav","","32","781","n-back-trial","1","2","T","5","0","1","0","","","",""
"audio-keyboard-response","55","205460","0.0-1.0-1.1-1.44-0.44","819","letters/7.wav","","32","819","n-back-trial","1","2","T","6","0","1","0","","","",""
"audio-keyboard-response","56","207980","0.0-1.0-1.1-1.45-0.45","null","letters/1.wav","","null","null","n-back-trial","0","2","NT","6","0","0","0","","","",""
"audio-keyboard-response","57","210501","0.0-1.0-1.1-1.46-0.46","1200","letters/7.wav","","32","1200","n-back-trial","1","2","T","7","0","1","0","","","",""
"audio-keyboard-response","58","213021","0.0-1.0-1.1-1.47-0.47","null","letters/4.wav","","null","null","n-back-trial","0","2","NT","7","0","0","0","","","",""
"audio-keyboard-response","59","215540","0.0-1.0-1.1-1.48-0.48","null","letters/5.wav","","null","null","n-back-trial","0","2","NT","7","0","0","0","","","",""
"audio-keyboard-response","60","218061","0.0-1.0-1.1-1.49-0.49","null","letters/2.wav","","null","null","n-back-trial","0","2","NT","7","0","0","0","","","",""
"audio-keyboard-response","61","220571","0.0-1.0-1.1-1.50-0.50","1109","letters/5.wav","","32","1109","n-back-trial","1","2","T","8","0","1","0","","","",""
"audio-keyboard-response","62","223091","0.0-1.0-1.1-1.51-0.51","979","letters/2.wav","","32","979","n-back-trial","1","2","T","9","0","1","0","","","",""
"audio-keyboard-response","63","225611","0.0-1.0-1.1-1.52-0.52","null","letters/8.wav","","null","null","n-back-trial","0","2","NT","9","0","0","0","","","",""
"audio-keyboard-response","64","228121","0.0-1.0-1.1-1.53-0.53","null","letters/3.wav","","null","null","n-back-trial","0","2","NT","9","0","0","0","","","",""
"audio-keyboard-response","65","230641","0.0-1.0-1.1-1.54-0.54","null","letters/4.wav","","null","null","n-back-trial","0","2","NT","9","0","0","0","","","",""
"audio-keyboard-response","66","233161","0.0-1.0-1.1-1.55-0.55","null","letters/7.wav","","null","null","n-back-trial","0","2","NT","9","0","0","0","","","",""
"audio-keyboard-response","67","235672","0.0-1.0-1.1-1.56-0.56","880","letters/3.wav","","32","880","n-back-trial","1","2","NT","9","1","0","1","","","",""
"audio-keyboard-response","68","238182","0.0-1.0-1.1-1.57-0.57","null","letters/1.wav","","null","null","n-back-trial","0","2","NT","9","1","0","0","","","",""
"audio-keyboard-response","69","240701","0.0-1.0-1.1-1.58-0.58","null","letters/1.wav","","null","null","n-back-trial","0","2","NT","9","1","0","0","","","",""
"audio-keyboard-response","70","243222","0.0-1.0-1.1-1.59-0.59","null","letters/7.wav","","null","null","n-back-trial","0","2","NT","9","1","0","0","","","",""
"audio-keyboard-response","71","245742","0.0-1.0-1.1-1.60-0.60","null","letters/7.wav","","null","null","n-back-trial","0","2","NT","9","1","0","0","","","",""
"audio-keyboard-response","72","248263","0.0-1.0-1.1-1.61-0.61","null","letters/2.wav","","null","null","n-back-trial","0","2","NT","9","1","0","0","","","",""
"audio-keyboard-response","73","250772","0.0-1.0-1.1-1.62-0.62","861","letters/7.wav","","32","861","n-back-trial","1","2","T","10","1","1","0","","","",""
"html-button-response","74","263563","0.0-1.0-1.1-2.1","12789","<p>You may take a short break if you wish.</p><p>Click the button below when you are ready to continue.</p>","0","","","n-back-run-summary","","2","","","","","","+1","10","1",""
"html-button-response","75","266867","0.0-1.0-1.2-0.2","3302","<p>You will now complete a <strong>3-back.</strong></p><p>Remember, this means that you should press SPACEBAR every time the sound you hear matches the one presented <strong>3</strong> position(s) previously.</p>","0","","","","","","","","","","","","","",""
"audio-keyboard-response","76","269374","0.0-1.0-1.2-1.63-0.63","null","letters/3.wav","","null","null","n-back-trial","0","3","FIRSTS","0","0","0","0","","","",""
"audio-keyboard-response","77","271894","0.0-1.0-1.2-1.64-0.64","null","letters/5.wav","","null","null","n-back-trial","0","3","FIRSTS","0","0","0","0","","","",""
"audio-keyboard-response","78","274414","0.0-1.0-1.2-1.65-0.65","null","letters/6.wav","","null","null","n-back-trial","0","3","FIRSTS","0","0","0","0","","","",""
"audio-keyboard-response","79","276924","0.0-1.0-1.2-1.66-0.66","1059","letters/3.wav","","32","1059","n-back-trial","1","3","T","1","0","1","0","","","",""
"audio-keyboard-response","80","279444","0.0-1.0-1.2-1.67-0.67","null","letters/1.wav","","null","null","n-back-trial","0","3","NT","1","0","0","0","","","",""
"audio-keyboard-response","81","281954","0.0-1.0-1.2-1.68-0.68","1760","letters/6.wav","","32","1760","n-back-trial","1","3","T","2","0","1","0","","","",""
"audio-keyboard-response","82","284469","0.0-1.0-1.2-1.69-0.69","null","letters/7.wav","","null","null","n-back-trial","0","3","NT","2","0","0","0","","","",""
"audio-keyboard-response","83","286974","0.0-1.0-1.2-1.70-0.70","null","letters/7.wav","","null","null","n-back-trial","0","3","NT","2","0","0","0","","","",""
"audio-keyboard-response","84","289495","0.0-1.0-1.2-1.71-0.71","null","letters/5.wav","","null","null","n-back-trial","0","3","NT","2","0","0","0","","","",""
"audio-keyboard-response","85","292015","0.0-1.0-1.2-1.72-0.72","null","letters/3.wav","","null","null","n-back-trial","0","3","NT","2","0","0","0","","","",""
"audio-keyboard-response","86","294534","0.0-1.0-1.2-1.73-0.73","null","letters/7.wav","","null","null","n-back-trial","0","3","T","2","0","0","0","","","",""
"audio-keyboard-response","87","297045","0.0-1.0-1.2-1.74-0.74","null","letters/8.wav","","null","null","n-back-trial","0","3","NT","2","0","0","0","","","",""
"audio-keyboard-response","88","299565","0.0-1.0-1.2-1.75-0.75","null","letters/7.wav","","null","null","n-back-trial","0","3","NT","2","0","0","0","","","",""
"audio-keyboard-response","89","302085","0.0-1.0-1.2-1.76-0.76","229","letters/7.wav","","32","229","n-back-trial","1","3","T","3","0","1","0","","","",""
"audio-keyboard-response","90","304605","0.0-1.0-1.2-1.77-0.77","null","letters/1.wav","","null","null","n-back-trial","0","3","NT","3","0","0","0","","","",""
"audio-keyboard-response","91","307115","0.0-1.0-1.2-1.78-0.78","null","letters/2.wav","","null","null","n-back-trial","0","3","NT","3","0","0","0","","","",""
"audio-keyboard-response","92","309635","0.0-1.0-1.2-1.79-0.79","null","letters/8.wav","","null","null","n-back-trial","0","3","NT","3","0","0","0","","","",""
"audio-keyboard-response","93","312151","0.0-1.0-1.2-1.80-0.80","1512","letters/1.wav","","32","1512","n-back-trial","1","3","T","4","0","1","0","","","",""
"audio-keyboard-response","94","314675","0.0-1.0-1.2-1.81-0.81","null","letters/6.wav","","null","null","n-back-trial","0","3","NT","4","0","0","0","","","",""
"audio-keyboard-response","95","317186","0.0-1.0-1.2-1.82-0.82","1221","letters/8.wav","","32","1221","n-back-trial","1","3","T","5","0","1","0","","","",""
"audio-keyboard-response","96","319706","0.0-1.0-1.2-1.83-0.83","null","letters/4.wav","","null","null","n-back-trial","0","3","NT","5","0","0","0","","","",""
"audio-keyboard-response","97","322226","0.0-1.0-1.2-1.84-0.84","null","letters/7.wav","","null","null","n-back-trial","0","3","NT","5","0","0","0","","","",""
"audio-keyboard-response","98","324736","0.0-1.0-1.2-1.85-0.85","1248","letters/6.wav","","32","1248","n-back-trial","1","3","NT","5","1","0","1","","","",""
"audio-keyboard-response","99","327257","0.0-1.0-1.2-1.86-0.86","null","letters/5.wav","","null","null","n-back-trial","0","3","NT","5","1","0","0","","","",""
"audio-keyboard-response","100","329767","0.0-1.0-1.2-1.87-0.87","null","letters/2.wav","","null","null","n-back-trial","0","3","NT","5","1","0","0","","","",""
"audio-keyboard-response","101","332286","0.0-1.0-1.2-1.88-0.88","1051","letters/6.wav","","32","1051","n-back-trial","1","3","T","6","1","1","0","","","",""
"audio-keyboard-response","102","334807","0.0-1.0-1.2-1.89-0.89","null","letters/5.wav","","null","null","n-back-trial","0","3","T","6","1","0","0","","","",""
"audio-keyboard-response","103","337327","0.0-1.0-1.2-1.90-0.90","null","letters/4.wav","","null","null","n-back-trial","0","3","NT","6","1","0","0","","","",""
"audio-keyboard-response","104","339847","0.0-1.0-1.2-1.91-0.91","null","letters/3.wav","","null","null","n-back-trial","0","3","NT","6","1","0","0","","","",""
"audio-keyboard-response","105","342357","0.0-1.0-1.2-1.92-0.92","1381","letters/5.wav","","32","1381","n-back-trial","1","3","T","7","1","1","0","","","",""
"audio-keyboard-response","106","344877","0.0-1.0-1.2-1.93-0.93","1701","letters/3.wav","","32","1701","n-back-trial","1","3","NT","7","2","0","1","","","",""
"audio-keyboard-response","107","347388","0.0-1.0-1.2-1.94-0.94","null","letters/3.wav","","null","null","n-back-trial","0","3","T","7","2","0","0","","","",""
"audio-keyboard-response","108","349907","0.0-1.0-1.2-1.95-0.95","null","letters/7.wav","","null","null","n-back-trial","0","3","NT","7","2","0","0","","","",""
"html-button-response","109","354179","0.0-1.0-1.2-2.2","4271","<p>You may take a short break if you wish.</p><p>Click the button below when you are ready to continue.</p>","0","","","n-back-run-summary","","3","","","","","","+1","7","2",""
"html-button-response","110","361163","0.0-1.0-1.3-0.3","6982","<p>You will now complete a <strong>4-back.</strong></p><p>Remember, this means that you should press SPACEBAR every time the sound you hear matches the one presented <strong>4</strong> position(s) previously.</p>","0","","","","","","","","","","","","","",""
"audio-keyboard-response","111","363678","0.0-1.0-1.3-1.96-0.96","null","letters/6.wav","","null","null","n-back-trial","0","4","FIRSTS","0","0","0","0","","","",""
"audio-keyboard-response","112","366198","0.0-1.0-1.3-1.97-0.97","null","letters/4.wav","","null","null","n-back-trial","0","4","FIRSTS","0","0","0","0","","","",""
"audio-keyboard-response","113","368718","0.0-1.0-1.3-1.98-0.98","null","letters/1.wav","","null","null","n-back-trial","0","4","FIRSTS","0","0","0","0","","","",""
"audio-keyboard-response","114","371239","0.0-1.0-1.3-1.99-0.99","null","letters/1.wav","","null","null","n-back-trial","0","4","FIRSTS","0","0","0","0","","","",""
"audio-keyboard-response","115","373759","0.0-1.0-1.3-1.100-0.100","null","letters/7.wav","","null","null","n-back-trial","0","4","NT","0","0","0","0","","","",""
"audio-keyboard-response","116","376279","0.0-1.0-1.3-1.101-0.101","1109","letters/4.wav","","32","1109","n-back-trial","1","4","T","1","0","1","0","","","",""
"audio-keyboard-response","117","378799","0.0-1.0-1.3-1.102-0.102","null","letters/3.wav","","null","null","n-back-trial","0","4","NT","1","0","0","0","","","",""
"audio-keyboard-response","118","381319","0.0-1.0-1.3-1.103-0.103","null","letters/8.wav","","null","null","n-back-trial","0","4","NT","1","0","0","0","","","",""
"audio-keyboard-response","119","383829","0.0-1.0-1.3-1.104-0.104","null","letters/5.wav","","null","null","n-back-trial","0","4","NT","1","0","0","0","","","",""
"audio-keyboard-response","120","386350","0.0-1.0-1.3-1.105-0.105","989","letters/1.wav","","32","989","n-back-trial","1","4","NT","1","1","0","1","","","",""
"audio-keyboard-response","121","388869","0.0-1.0-1.3-1.106-0.106","1531","letters/3.wav","","32","1531","n-back-trial","1","4","T","2","1","1","0","","","",""
"audio-keyboard-response","122","391390","0.0-1.0-1.3-1.107-0.107","1149","letters/7.wav","","32","1149","n-back-trial","1","4","NT","2","2","0","1","","","",""
"audio-keyboard-response","123","393900","0.0-1.0-1.3-1.108-0.108","1365","letters/8.wav","","32","1365","n-back-trial","1","4","NT","2","3","0","1","","","",""
"audio-keyboard-response","124","396420","0.0-1.0-1.3-1.109-0.109","null","letters/4.wav","","null","null","n-back-trial","0","4","NT","2","3","0","0","","","",""
"audio-keyboard-response","125","398940","0.0-1.0-1.3-1.110-0.110","null","letters/3.wav","","null","null","n-back-trial","0","4","T","2","3","0","0","","","",""
"audio-keyboard-response","126","401450","0.0-1.0-1.3-1.111-0.111","null","letters/5.wav","","null","null","n-back-trial","0","4","NT","2","3","0","0","","","",""
"audio-keyboard-response","127","403970","0.0-1.0-1.3-1.112-0.112","null","letters/8.wav","","null","null","n-back-trial","0","4","T","2","3","0","0","","","",""
"audio-keyboard-response","128","406490","0.0-1.0-1.3-1.113-0.113","null","letters/2.wav","","null","null","n-back-trial","0","4","NT","2","3","0","0","","","",""
"audio-keyboard-response","129","409001","0.0-1.0-1.3-1.114-0.114","null","letters/5.wav","","null","null","n-back-trial","0","4","NT","2","3","0","0","","","",""
"audio-keyboard-response","130","411521","0.0-1.0-1.3-1.115-0.115","null","letters/5.wav","","null","null","n-back-trial","0","4","T","2","3","0","0","","","",""
"audio-keyboard-response","131","414041","0.0-1.0-1.3-1.116-0.116","null","letters/8.wav","","null","null","n-back-trial","0","4","T","2","3","0","0","","","",""
"audio-keyboard-response","132","416561","0.0-1.0-1.3-1.117-0.117","null","letters/7.wav","","null","null","n-back-trial","0","4","NT","2","3","0","0","","","",""
"audio-keyboard-response","133","419081","0.0-1.0-1.3-1.118-0.118","720","letters/5.wav","","32","720","n-back-trial","1","4","T","3","3","1","0","","","",""
"audio-keyboard-response","134","421601","0.0-1.0-1.3-1.119-0.119","760","letters/5.wav","","32","760","n-back-trial","1","4","T","4","3","1","0","","","",""
"audio-keyboard-response","135","424111","0.0-1.0-1.3-1.120-0.120","null","letters/3.wav","","null","null","n-back-trial","0","4","NT","4","3","0","0","","","",""
"audio-keyboard-response","136","426621","0.0-1.0-1.3-1.121-0.121","939","letters/8.wav","","32","939","n-back-trial","1","4","NT","4","4","0","1","","","",""
"audio-keyboard-response","137","429141","0.0-1.0-1.3-1.122-0.122","null","letters/2.wav","","null","null","n-back-trial","0","4","NT","4","4","0","0","","","",""
"audio-keyboard-response","138","431651","0.0-1.0-1.3-1.123-0.123","949","letters/5.wav","","32","949","n-back-trial","1","4","T","5","4","1","0","","","",""
"audio-keyboard-response","139","434172","0.0-1.0-1.3-1.124-0.124","null","letters/4.wav","","null","null","n-back-trial","0","4","NT","5","4","0","0","","","",""
"audio-keyboard-response","140","436682","0.0-1.0-1.3-1.125-0.125","2011","letters/7.wav","","32","2011","n-back-trial","1","4","NT","5","5","0","1","","","",""
"audio-keyboard-response","141","439192","0.0-1.0-1.3-1.126-0.126","null","letters/2.wav","","null","null","n-back-trial","0","4","T","5","5","0","0","","","",""
"audio-keyboard-response","142","441702","0.0-1.0-1.3-1.127-0.127","1229","letters/1.wav","","32","1229","n-back-trial","1","4","NT","5","6","0","1","","","",""
"audio-keyboard-response","143","444213","0.0-1.0-1.3-1.128-0.128","1328","letters/8.wav","","32","1328","n-back-trial","1","4","NT","5","7","0","1","","","",""
"audio-keyboard-response","144","446733","0.0-1.0-1.3-1.129-0.129","null","letters/1.wav","","null","null","n-back-trial","0","4","NT","5","7","0","0","","","",""
"html-button-response","145","450595","0.0-1.0-1.3-2.3","3860","<p>You may take a short break if you wish.</p><p>Click the button below when you are ready to continue.</p>","0","","","n-back-run-summary","","4","","","","","","-1","5","7",""
"html-button-response","146","455147","0.0-1.0-1.4-0.4","4550","<p>You will now complete a <strong>3-back.</strong></p><p>Remember, this means that you should press SPACEBAR every time the sound you hear matches the one presented <strong>3</strong> position(s) previously.</p>","0","","","","","","","","","","","","","",""
"audio-keyboard-response","147","457653","0.0-1.0-1.4-1.130-0.130","null","letters/7.wav","","null","null","n-back-trial","0","3","FIRSTS","0","0","0","0","","","",""
"audio-keyboard-response","148","460173","0.0-1.0-1.4-1.131-0.131","null","letters/7.wav","","null","null","n-back-trial","0","3","FIRSTS","0","0","0","0","","","",""
"audio-keyboard-response","149","462693","0.0-1.0-1.4-1.132-0.132","null","letters/2.wav","","null","null","n-back-trial","0","3","FIRSTS","0","0","0","0","","","",""
"audio-keyboard-response","150","465214","0.0-1.0-1.4-1.133-0.133","null","letters/2.wav","","null","null","n-back-trial","0","3","NT","0","0","0","0","","","",""
"audio-keyboard-response","151","467724","0.0-1.0-1.4-1.134-0.134","459","letters/7.wav","","32","459","n-back-trial","1","3","T","1","0","1","0","","","",""
"audio-keyboard-response","152","470244","0.0-1.0-1.4-1.135-0.135","669","letters/2.wav","","32","669","n-back-trial","1","3","T","2","0","1","0","","","",""
"audio-keyboard-response","153","472764","0.0-1.0-1.4-1.136-0.136","null","letters/3.wav","","null","null","n-back-trial","0","3","NT","2","0","0","0","","","",""
"audio-keyboard-response","154","475274","0.0-1.0-1.4-1.137-0.137","null","letters/6.wav","","null","null","n-back-trial","0","3","NT","2","0","0","0","","","",""
"audio-keyboard-response","155","477792","0.0-1.0-1.4-1.138-0.138","1528","letters/2.wav","","32","1528","n-back-trial","1","3","T","3","0","1","0","","","",""
"audio-keyboard-response","156","480294","0.0-1.0-1.4-1.139-0.139","null","letters/8.wav","","null","null","n-back-trial","0","3","NT","3","0","0","0","","","",""
"audio-keyboard-response","157","482814","0.0-1.0-1.4-1.140-0.140","null","letters/6.wav","","null","null","n-back-trial","0","3","T","3","0","0","0","","","",""
"audio-keyboard-response","158","485334","0.0-1.0-1.4-1.141-0.141","null","letters/5.wav","","null","null","n-back-trial","0","3","NT","3","0","0","0","","","",""
"audio-keyboard-response","159","487854","0.0-1.0-1.4-1.142-0.142","null","letters/5.wav","","null","null","n-back-trial","0","3","NT","3","0","0","0","","","",""
"audio-keyboard-response","160","490374","0.0-1.0-1.4-1.143-0.143","null","letters/6.wav","","null","null","n-back-trial","0","3","T","3","0","0","0","","","",""
"audio-keyboard-response","161","492885","0.0-1.0-1.4-1.144-0.144","null","letters/1.wav","","null","null","n-back-trial","0","3","NT","3","0","0","0","","","",""
"audio-keyboard-response","162","495405","0.0-1.0-1.4-1.145-0.145","null","letters/8.wav","","null","null","n-back-trial","0","3","NT","3","0","0","0","","","",""
"audio-keyboard-response","163","497925","0.0-1.0-1.4-1.146-0.146","null","letters/3.wav","","null","null","n-back-trial","0","3","NT","3","0","0","0","","","",""
"audio-keyboard-response","164","500436","0.0-1.0-1.4-1.147-0.147","null","letters/7.wav","","null","null","n-back-trial","0","3","NT","3","0","0","0","","","",""
"audio-keyboard-response","165","502955","0.0-1.0-1.4-1.148-0.148","1021","letters/8.wav","","32","1021","n-back-trial","1","3","T","4","0","1","0","","","",""
"audio-keyboard-response","166","505464","0.0-1.0-1.4-1.149-0.149","null","letters/4.wav","","null","null","n-back-trial","0","3","NT","4","0","0","0","","","",""
"audio-keyboard-response","167","507976","0.0-1.0-1.4-1.150-0.150","1229","letters/7.wav","","32","1229","n-back-trial","1","3","T","5","0","1","0","","","",""
"audio-keyboard-response","168","510486","0.0-1.0-1.4-1.151-0.151","null","letters/8.wav","","null","null","n-back-trial","0","3","T","5","0","0","0","","","",""
"audio-keyboard-response","169","513006","0.0-1.0-1.4-1.152-0.152","null","letters/2.wav","","null","null","n-back-trial","0","3","NT","5","0","0","0","","","",""
"audio-keyboard-response","170","515521","0.0-1.0-1.4-1.153-0.153","null","letters/1.wav","","null","null","n-back-trial","0","3","NT","5","0","0","0","","","",""
"audio-keyboard-response","171","518036","0.0-1.0-1.4-1.154-0.154","null","letters/1.wav","","null","null","n-back-trial","0","3","NT","5","0","0","0","","","",""
"audio-keyboard-response","172","520546","0.0-1.0-1.4-1.155-0.155","840","letters/2.wav","","32","840","n-back-trial","1","3","T","6","0","1","0","","","",""
"audio-keyboard-response","173","523057","0.0-1.0-1.4-1.156-0.156","null","letters/6.wav","","null","null","n-back-trial","0","3","NT","6","0","0","0","","","",""
"audio-keyboard-response","174","525576","0.0-1.0-1.4-1.157-0.157","null","letters/4.wav","","null","null","n-back-trial","0","3","NT","6","0","0","0","","","",""
"audio-keyboard-response","175","528087","0.0-1.0-1.4-1.158-0.158","null","letters/8.wav","","null","null","n-back-trial","0","3","NT","6","0","0","0","","","",""
"audio-keyboard-response","176","530597","0.0-1.0-1.4-1.159-0.159","1229","letters/6.wav","","32","1229","n-back-trial","1","3","T","7","0","1","0","","","",""
"audio-keyboard-response","177","533107","0.0-1.0-1.4-1.160-0.160","null","letters/7.wav","","null","null","n-back-trial","0","3","NT","7","0","0","0","","","",""
"audio-keyboard-response","178","535627","0.0-1.0-1.4-1.161-0.161","null","letters/6.wav","","null","null","n-back-trial","0","3","NT","7","0","0","0","","","",""
"audio-keyboard-response","179","538147","0.0-1.0-1.4-1.162-0.162","null","letters/1.wav","","null","null","n-back-trial","0","3","NT","7","0","0","0","","","",""
"html-button-response","180","546715","0.0-1.0-1.4-2.4","8566","<p>You may take a short break if you wish.</p><p>Click the button below when you are ready to continue.</p>","0","","","n-back-run-summary","","3","","","","","","+1","7","0",""
"html-button-response","181","560459","0.0-1.0-1.5-0.5","13742","<p>You will now complete a <strong>4-back.</strong></p><p>Remember, this means that you should press SPACEBAR every time the sound you hear matches the one presented <strong>4</strong> position(s) previously.</p>","0","","","","","","","","","","","","","",""
"audio-keyboard-response","182","562969","0.0-1.0-1.5-1.163-0.163","null","letters/8.wav","","null","null","n-back-trial","0","4","FIRSTS","0","0","0","0","","","",""
"audio-keyboard-response","183","565478","0.0-1.0-1.5-1.164-0.164","null","letters/5.wav","","null","null","n-back-trial","0","4","FIRSTS","0","0","0","0","","","",""
"audio-keyboard-response","184","567998","0.0-1.0-1.5-1.165-0.165","null","letters/8.wav","","null","null","n-back-trial","0","4","FIRSTS","0","0","0","0","","","",""
"audio-keyboard-response","185","570509","0.0-1.0-1.5-1.166-0.166","null","letters/5.wav","","null","null","n-back-trial","0","4","FIRSTS","0","0","0","0","","","",""
"audio-keyboard-response","186","573019","0.0-1.0-1.5-1.167-0.167","1029","letters/8.wav","","32","1029","n-back-trial","1","4","T","1","0","1","0","","","",""
"audio-keyboard-response","187","575539","0.0-1.0-1.5-1.168-0.168","null","letters/2.wav","","null","null","n-back-trial","0","4","NT","1","0","0","0","","","",""
"audio-keyboard-response","188","578059","0.0-1.0-1.5-1.169-0.169","861","letters/8.wav","","32","861","n-back-trial","1","4","T","2","0","1","0","","","",""
"audio-keyboard-response","189","580579","0.0-1.0-1.5-1.170-0.170","null","letters/3.wav","","null","null","n-back-trial","0","4","NT","2","0","0","0","","","",""
"audio-keyboard-response","190","583089","0.0-1.0-1.5-1.171-0.171","null","letters/4.wav","","null","null","n-back-trial","0","4","NT","2","0","0","0","","","",""
"audio-keyboard-response","191","585599","0.0-1.0-1.5-1.172-0.172","null","letters/1.wav","","null","null","n-back-trial","0","4","NT","2","0","0","0","","","",""
"audio-keyboard-response","192","588120","0.0-1.0-1.5-1.173-0.173","728","letters/3.wav","","32","728","n-back-trial","1","4","NT","2","1","0","1","","","",""
"audio-keyboard-response","193","590640","0.0-1.0-1.5-1.174-0.174","null","letters/3.wav","","null","null","n-back-trial","0","4","T","2","1","0","0","","","",""
"audio-keyboard-response","194","593160","0.0-1.0-1.5-1.175-0.175","null","letters/6.wav","","null","null","n-back-trial","0","4","NT","2","1","0","0","","","",""
"audio-keyboard-response","195","595680","0.0-1.0-1.5-1.176-0.176","1360","letters/8.wav","","32","1360","n-back-trial","1","4","NT","2","2","0","1","","","",""
"audio-keyboard-response","196","598200","0.0-1.0-1.5-1.177-0.177","null","letters/3.wav","","null","null","n-back-trial","0","4","T","2","2","0","0","","","",""
"audio-keyboard-response","197","600719","0.0-1.0-1.5-1.178-0.178","null","letters/6.wav","","null","null","n-back-trial","0","4","NT","2","2","0","0","","","",""
"audio-keyboard-response","198","603241","0.0-1.0-1.5-1.179-0.179","null","letters/6.wav","","null","null","n-back-trial","0","4","T","2","2","0","0","","","",""
"audio-keyboard-response","199","605747","0.0-1.0-1.5-1.180-0.180","null","letters/8.wav","","null","null","n-back-trial","0","4","T","2","2","0","0","","","",""
"audio-keyboard-response","200","608248","0.0-1.0-1.5-1.181-0.181","null","letters/5.wav","","null","null","n-back-trial","0","4","NT","2","2","0","0","","","",""
"audio-keyboard-response","201","610750","0.0-1.0-1.5-1.182-0.182","null","letters/3.wav","","null","null","n-back-trial","0","4","NT","2","2","0","0","","","",""
"audio-keyboard-response","202","613261","0.0-1.0-1.5-1.183-0.183","819","letters/6.wav","","32","819","n-back-trial","1","4","T","3","2","1","0","","","",""
"audio-keyboard-response","203","615771","0.0-1.0-1.5-1.184-0.184","null","letters/3.wav","","null","null","n-back-trial","0","4","NT","3","2","0","0","","","",""
"audio-keyboard-response","204","618291","0.0-1.0-1.5-1.185-0.185","null","letters/5.wav","","null","null","n-back-trial","0","4","T","3","2","0","0","","","",""
"audio-keyboard-response","205","620812","0.0-1.0-1.5-1.186-0.186","null","letters/6.wav","","null","null","n-back-trial","0","4","NT","3","2","0","0","","","",""
"audio-keyboard-response","206","623331","0.0-1.0-1.5-1.187-0.187","null","letters/4.wav","","null","null","n-back-trial","0","4","NT","3","2","0","0","","","",""
"audio-keyboard-response","207","625852","0.0-1.0-1.5-1.188-0.188","1021","letters/6.wav","","32","1021","n-back-trial","1","4","NT","3","3","0","1","","","",""
"audio-keyboard-response","208","628362","0.0-1.0-1.5-1.189-0.189","null","letters/5.wav","","null","null","n-back-trial","0","4","T","3","3","0","0","","","",""
"audio-keyboard-response","209","630882","0.0-1.0-1.5-1.190-0.190","null","letters/1.wav","","null","null","n-back-trial","0","4","NT","3","3","0","0","","","",""
"audio-keyboard-response","210","633402","0.0-1.0-1.5-1.191-0.191","1352","letters/4.wav","","32","1352","n-back-trial","1","4","T","4","3","1","0","","","",""
"audio-keyboard-response","211","635912","0.0-1.0-1.5-1.192-0.192","null","letters/2.wav","","null","null","n-back-trial","0","4","NT","4","3","0","0","","","",""
"audio-keyboard-response","212","638433","0.0-1.0-1.5-1.193-0.193","null","letters/3.wav","","null","null","n-back-trial","0","4","NT","4","3","0","0","","","",""
"audio-keyboard-response","213","640952","0.0-1.0-1.5-1.194-0.194","1840","letters/4.wav","","32","1840","n-back-trial","1","4","NT","4","4","0","1","","","",""
"audio-keyboard-response","214","643463","0.0-1.0-1.5-1.195-0.195","null","letters/6.wav","","null","null","n-back-trial","0","4","NT","4","4","0","0","","","",""
"audio-keyboard-response","215","645983","0.0-1.0-1.5-1.196-0.196","null","letters/8.wav","","null","null","n-back-trial","0","4","NT","4","4","0","0","","","",""
"html-button-response","216","651747","0.0-1.0-1.5-2.5","5762","<p>You may take a short break if you wish.</p><p>Click the button below when you are ready to continue.</p>","0","","","n-back-run-summary","","4","","","","","","-1","4","4",""
"html-button-response","217","668331","0.0-1.0-1.6-0.6","16582","<p>You will now complete a <strong>3-back.</strong></p><p>Remember, this means that you should press SPACEBAR every time the sound you hear matches the one presented <strong>3</strong> position(s) previously.</p>","0","","","","","","","","","","","","","",""
"audio-keyboard-response","218","670834","0.0-1.0-1.6-1.197-0.197","null","letters/1.wav","","null","null","n-back-trial","0","3","FIRSTS","0","0","0","0","","","",""
"audio-keyboard-response","219","673354","0.0-1.0-1.6-1.198-0.198","null","letters/8.wav","","null","null","n-back-trial","0","3","FIRSTS","0","0","0","0","","","",""
"audio-keyboard-response","220","675864","0.0-1.0-1.6-1.199-0.199","null","letters/8.wav","","null","null","n-back-trial","0","3","FIRSTS","0","0","0","0","","","",""
"audio-keyboard-response","221","678384","0.0-1.0-1.6-1.200-0.200","541","letters/1.wav","","32","541","n-back-trial","1","3","T","1","0","1","0","","","",""
"audio-keyboard-response","222","680894","0.0-1.0-1.6-1.201-0.201","null","letters/7.wav","","null","null","n-back-trial","0","3","NT","1","0","0","0","","","",""
"audio-keyboard-response","223","683413","0.0-1.0-1.6-1.202-0.202","null","letters/8.wav","","null","null","n-back-trial","0","3","T","1","0","0","0","","","",""
"audio-keyboard-response","224","685935","0.0-1.0-1.6-1.203-0.203","1520","letters/1.wav","","32","1520","n-back-trial","1","3","T","2","0","1","0","","","",""
"audio-keyboard-response","225","688455","0.0-1.0-1.6-1.204-0.204","null","letters/2.wav","","null","null","n-back-trial","0","3","NT","2","0","0","0","","","",""
"audio-keyboard-response","226","690975","0.0-1.0-1.6-1.205-0.205","null","letters/3.wav","","null","null","n-back-trial","0","3","NT","2","0","0","0","","","",""
"audio-keyboard-response","227","693495","0.0-1.0-1.6-1.206-0.206","null","letters/4.wav","","null","null","n-back-trial","0","3","NT","2","0","0","0","","","",""
"audio-keyboard-response","228","696016","0.0-1.0-1.6-1.207-0.207","1861","letters/2.wav","","32","1861","n-back-trial","1","3","T","3","0","1","0","","","",""
"audio-keyboard-response","229","698525","0.0-1.0-1.6-1.208-0.208","1411","letters/3.wav","","32","1411","n-back-trial","1","3","T","4","0","1","0","","","",""
"audio-keyboard-response","230","701045","0.0-1.0-1.6-1.209-0.209","null","letters/7.wav","","null","null","n-back-trial","0","3","NT","4","0","0","0","","","",""
"audio-keyboard-response","231","703551","0.0-1.0-1.6-1.210-0.210","null","letters/5.wav","","null","null","n-back-trial","0","3","NT","4","0","0","0","","","",""
"audio-keyboard-response","232","706056","0.0-1.0-1.6-1.211-0.211","1960","letters/7.wav","","32","1960","n-back-trial","1","3","NT","4","1","0","1","","","",""
"audio-keyboard-response","233","708576","0.0-1.0-1.6-1.212-0.212","null","letters/7.wav","","null","null","n-back-trial","0","3","T","4","1","0","0","","","",""
"audio-keyboard-response","234","711091","0.0-1.0-1.6-1.213-0.213","1811","letters/2.wav","","32","1811","n-back-trial","1","3","NT","4","2","0","1","","","",""
"audio-keyboard-response","235","713606","0.0-1.0-1.6-1.214-0.214","1901","letters/7.wav","","32","1901","n-back-trial","1","3","T","5","2","1","0","","","",""
"audio-keyboard-response","236","716127","0.0-1.0-1.6-1.215-0.215","null","letters/5.wav","","null","null","n-back-trial","0","3","NT","5","2","0","0","","","",""
"audio-keyboard-response","237","718637","0.0-1.0-1.6-1.216-0.216","null","letters/7.wav","","null","null","n-back-trial","0","3","NT","5","2","0","0","","","",""
"audio-keyboard-response","238","721152","0.0-1.0-1.6-1.217-0.217","null","letters/7.wav","","null","null","n-back-trial","0","3","T","5","2","0","0","","","",""
"audio-keyboard-response","239","723667","0.0-1.0-1.6-1.218-0.218","null","letters/1.wav","","null","null","n-back-trial","0","3","NT","5","2","0","0","","","",""
"audio-keyboard-response","240","726187","0.0-1.0-1.6-1.219-0.219","null","letters/5.wav","","null","null","n-back-trial","0","3","NT","5","2","0","0","","","",""
"audio-keyboard-response","241","728697","0.0-1.0-1.6-1.220-0.220","null","letters/3.wav","","null","null","n-back-trial","0","3","NT","5","2","0","0","","","",""
"audio-keyboard-response","242","731217","0.0-1.0-1.6-1.221-0.221","null","letters/7.wav","","null","null","n-back-trial","0","3","NT","5","2","0","0","","","",""
"audio-keyboard-response","243","733738","0.0-1.0-1.6-1.222-0.222","null","letters/4.wav","","null","null","n-back-trial","0","3","NT","5","2","0","0","","","",""
"audio-keyboard-response","244","736247","0.0-1.0-1.6-1.223-0.223","null","letters/8.wav","","null","null","n-back-trial","0","3","NT","5","2","0","0","","","",""
"audio-keyboard-response","245","738767","0.0-1.0-1.6-1.224-0.224","1048","letters/7.wav","","32","1048","n-back-trial","1","3","T","6","2","1","0","","","",""
"audio-keyboard-response","246","741288","0.0-1.0-1.6-1.225-0.225","1320","letters/3.wav","","32","1320","n-back-trial","1","3","NT","6","3","0","1","","","",""
"audio-keyboard-response","247","743808","0.0-1.0-1.6-1.226-0.226","1600","letters/4.wav","","32","1600","n-back-trial","1","3","NT","6","4","0","1","","","",""
"audio-keyboard-response","248","746318","0.0-1.0-1.6-1.227-0.227","null","letters/7.wav","","null","null","n-back-trial","0","3","T","6","4","0","0","","","",""
"audio-keyboard-response","249","748828","0.0-1.0-1.6-1.228-0.228","null","letters/5.wav","","null","null","n-back-trial","0","3","NT","6","4","0","0","","","",""
"audio-keyboard-response","250","751348","0.0-1.0-1.6-1.229-0.229","null","letters/6.wav","","null","null","n-back-trial","0","3","NT","6","4","0","0","","","",""
"html-button-response","251","755763","0.0-1.0-1.6-2.6","4412","<p>You may take a short break if you wish.</p><p>Click the button below when you are ready to continue.</p>","0","","","n-back-run-summary","","3","","","","","","0","6","4",""
"html-button-response","252","770467","0.0-1.0-1.7-0.7","14702","<p>You will now complete a <strong>3-back.</strong></p><p>Remember, this means that you should press SPACEBAR every time the sound you hear matches the one presented <strong>3</strong> position(s) previously.</p>","0","","","","","","","","","","","","","",""
"audio-keyboard-response","253","772979","0.0-1.0-1.7-1.230-0.230","null","letters/5.wav","","null","null","n-back-trial","0","3","FIRSTS","0","0","0","0","","","",""
"audio-keyboard-response","254","775499","0.0-1.0-1.7-1.231-0.231","null","letters/4.wav","","null","null","n-back-trial","0","3","FIRSTS","0","0","0","0","","","",""
"audio-keyboard-response","255","778019","0.0-1.0-1.7-1.232-0.232","null","letters/2.wav","","null","null","n-back-trial","0","3","FIRSTS","0","0","0","0","","","",""
"audio-keyboard-response","256","780525","0.0-1.0-1.7-1.233-0.233","null","letters/1.wav","","null","null","n-back-trial","0","3","NT","0","0","0","0","","","",""
"audio-keyboard-response","257","783030","0.0-1.0-1.7-1.234-0.234","null","letters/5.wav","","null","null","n-back-trial","0","3","NT","0","0","0","0","","","",""
"audio-keyboard-response","258","785540","0.0-1.0-1.7-1.235-0.235","null","letters/7.wav","","null","null","n-back-trial","0","3","NT","0","0","0","0","","","",""
"audio-keyboard-response","259","788055","0.0-1.0-1.7-1.236-0.236","1280","letters/1.wav","","32","1280","n-back-trial","1","3","T","1","0","1","0","","","",""
"audio-keyboard-response","260","790565","0.0-1.0-1.7-1.237-0.237","null","letters/3.wav","","null","null","n-back-trial","0","3","NT","1","0","0","0","","","",""
"audio-keyboard-response","261","793080","0.0-1.0-1.7-1.238-0.238","null","letters/6.wav","","null","null","n-back-trial","0","3","NT","1","0","0","0","","","",""
"audio-keyboard-response","262","795600","0.0-1.0-1.7-1.239-0.239","779","letters/1.wav","","32","779","n-back-trial","1","3","T","2","0","1","0","","","",""
"audio-keyboard-response","263","798106","0.0-1.0-1.7-1.240-0.240","null","letters/7.wav","","null","null","n-back-trial","0","3","NT","2","0","0","0","","","",""
"audio-keyboard-response","264","800621","0.0-1.0-1.7-1.241-0.241","861","letters/6.wav","","32","861","n-back-trial","1","3","T","3","0","1","0","","","",""
"audio-keyboard-response","265","803141","0.0-1.0-1.7-1.242-0.242","null","letters/1.wav","","null","null","n-back-trial","0","3","T","3","0","0","0","","","",""
"audio-keyboard-response","266","805651","0.0-1.0-1.7-1.243-0.243","851","letters/7.wav","","32","851","n-back-trial","1","3","T","4","0","1","0","","","",""
"audio-keyboard-response","267","808161","0.0-1.0-1.7-1.244-0.244","null","letters/4.wav","","null","null","n-back-trial","0","3","NT","4","0","0","0","","","",""
"audio-keyboard-response","268","810676","0.0-1.0-1.7-1.245-0.245","null","letters/4.wav","","null","null","n-back-trial","0","3","NT","4","0","0","0","","","",""
"audio-keyboard-response","269","813191","0.0-1.0-1.7-1.246-0.246","null","letters/5.wav","","null","null","n-back-trial","0","3","NT","4","0","0","0","","","",""
"audio-keyboard-response","270","815712","0.0-1.0-1.7-1.247-0.247","1131","letters/6.wav","","32","1131","n-back-trial","1","3","NT","4","1","0","1","","","",""
"audio-keyboard-response","271","818231","0.0-1.0-1.7-1.248-0.248","1411","letters/4.wav","","32","1411","n-back-trial","1","3","T","5","1","1","0","","","",""
"audio-keyboard-response","272","820741","0.0-1.0-1.7-1.249-0.249","null","letters/3.wav","","null","null","n-back-trial","0","3","NT","5","1","0","0","","","",""
"audio-keyboard-response","273","823242","0.0-1.0-1.7-1.250-0.250","1960","letters/6.wav","","32","1960","n-back-trial","1","3","T","6","1","1","0","","","",""
"audio-keyboard-response","274","825747","0.0-1.0-1.7-1.251-0.251","2109","letters/5.wav","","32","2109","n-back-trial","1","3","NT","6","2","0","1","","","",""
"audio-keyboard-response","275","828249","0.0-1.0-1.7-1.252-0.252","null","letters/7.wav","","null","null","n-back-trial","0","3","NT","6","2","0","0","","","",""
"audio-keyboard-response","276","830752","0.0-1.0-1.7-1.253-0.253","null","letters/7.wav","","null","null","n-back-trial","0","3","NT","6","2","0","0","","","",""
"audio-keyboard-response","277","833262","0.0-1.0-1.7-1.254-0.254","669","letters/6.wav","","32","669","n-back-trial","1","3","NT","6","3","0","1","","","",""
"audio-keyboard-response","278","835768","0.0-1.0-1.7-1.255-0.255","null","letters/3.wav","","null","null","n-back-trial","0","3","NT","6","3","0","0","","","",""
"audio-keyboard-response","279","838288","0.0-1.0-1.7-1.256-0.256","null","letters/5.wav","","null","null","n-back-trial","0","3","NT","6","3","0","0","","","",""
"audio-keyboard-response","280","840793","0.0-1.0-1.7-1.257-0.257","null","letters/2.wav","","null","null","n-back-trial","0","3","NT","6","3","0","0","","","",""
"audio-keyboard-response","281","843302","0.0-1.0-1.7-1.258-0.258","669","letters/3.wav","","32","669","n-back-trial","1","3","T","7","3","1","0","","","",""
"audio-keyboard-response","282","845813","0.0-1.0-1.7-1.259-0.259","592","letters/5.wav","","32","592","n-back-trial","1","3","T","8","3","1","0","","","",""
"audio-keyboard-response","283","848318","0.0-1.0-1.7-1.260-0.260","null","letters/3.wav","","null","null","n-back-trial","0","3","NT","8","3","0","0","","","",""
"audio-keyboard-response","284","850828","0.0-1.0-1.7-1.261-0.261","1189","letters/5.wav","","32","1189","n-back-trial","1","3","NT","8","4","0","1","","","",""
"audio-keyboard-response","285","853343","0.0-1.0-1.7-1.262-0.262","null","letters/5.wav","","null","null","n-back-trial","0","3","T","8","4","0","0","","","",""
"html-button-response","286","857098","0.0-1.0-1.7-2.7","3754","<p>You may take a short break if you wish.</p><p>Click the button below when you are ready to continue.</p>","0","","","n-back-run-summary","","3","","","","","","0","8","4",""
"html-button-response","287","874058","0.0-1.0-1.8-0.8","16958","<p>You will now complete a <strong>3-back.</strong></p><p>Remember, this means that you should press SPACEBAR every time the sound you hear matches the one presented <strong>3</strong> position(s) previously.</p>","0","","","","","","","","","","","","","",""
"audio-keyboard-response","288","876574","0.0-1.0-1.8-1.263-0.263","null","letters/8.wav","","null","null","n-back-trial","0","3","FIRSTS","0","0","0","0","","","",""
"audio-keyboard-response","289","879094","0.0-1.0-1.8-1.264-0.264","null","letters/1.wav","","null","null","n-back-trial","0","3","FIRSTS","0","0","0","0","","","",""
"audio-keyboard-response","290","881603","0.0-1.0-1.8-1.265-0.265","null","letters/7.wav","","null","null","n-back-trial","0","3","FIRSTS","0","0","0","0","","","",""
"audio-keyboard-response","291","884115","0.0-1.0-1.8-1.266-0.266","null","letters/4.wav","","null","null","n-back-trial","0","3","NT","0","0","0","0","","","",""
"audio-keyboard-response","292","886630","0.0-1.0-1.8-1.267-0.267","null","letters/8.wav","","null","null","n-back-trial","0","3","NT","0","0","0","0","","","",""
"audio-keyboard-response","293","889145","0.0-1.0-1.8-1.268-0.268","null","letters/8.wav","","null","null","n-back-trial","0","3","NT","0","0","0","0","","","",""
"audio-keyboard-response","294","891650","0.0-1.0-1.8-1.269-0.269","null","letters/7.wav","","null","null","n-back-trial","0","3","NT","0","0","0","0","","","",""
"audio-keyboard-response","295","894170","0.0-1.0-1.8-1.270-0.270","1179","letters/8.wav","","32","1179","n-back-trial","1","3","T","1","0","1","0","","","",""
"audio-keyboard-response","296","896680","0.0-1.0-1.8-1.271-0.271","899","letters/8.wav","","32","899","n-back-trial","1","3","T","2","0","1","0","","","",""
"audio-keyboard-response","297","899186","0.0-1.0-1.8-1.272-0.272","659","letters/7.wav","","32","659","n-back-trial","1","3","T","3","0","1","0","","","",""
"audio-keyboard-response","298","901696","0.0-1.0-1.8-1.273-0.273","800","letters/8.wav","","32","800","n-back-trial","1","3","T","4","0","1","0","","","",""
"audio-keyboard-response","299","904216","0.0-1.0-1.8-1.274-0.274","640","letters/8.wav","","32","640","n-back-trial","1","3","T","5","0","1","0","","","",""
"audio-keyboard-response","300","906726","0.0-1.0-1.8-1.275-0.275","null","letters/8.wav","","null","null","n-back-trial","0","3","NT","5","0","0","0","","","",""
"audio-keyboard-response","301","909241","0.0-1.0-1.8-1.276-0.276","null","letters/7.wav","","null","null","n-back-trial","0","3","NT","5","0","0","0","","","",""
"audio-keyboard-response","302","911746","0.0-1.0-1.8-1.277-0.277","null","letters/7.wav","","null","null","n-back-trial","0","3","NT","5","0","0","0","","","",""
"audio-keyboard-response","303","914252","0.0-1.0-1.8-1.278-0.278","701","letters/8.wav","","32","701","n-back-trial","1","3","T","6","0","1","0","","","",""
"audio-keyboard-response","304","916762","0.0-1.0-1.8-1.279-0.279","null","letters/2.wav","","null","null","n-back-trial","0","3","NT","6","0","0","0","","","",""
"audio-keyboard-response","305","919272","0.0-1.0-1.8-1.280-0.280","1269","letters/7.wav","","32","1269","n-back-trial","1","3","T","7","0","1","0","","","",""
"audio-keyboard-response","306","921787","0.0-1.0-1.8-1.281-0.281","null","letters/7.wav","","null","null","n-back-trial","0","3","NT","7","0","0","0","","","",""
"audio-keyboard-response","307","924297","0.0-1.0-1.8-1.282-0.282","1011","letters/2.wav","","32","1011","n-back-trial","1","3","T","8","0","1","0","","","",""
"audio-keyboard-response","308","926812","0.0-1.0-1.8-1.283-0.283","null","letters/8.wav","","null","null","n-back-trial","0","3","NT","8","0","0","0","","","",""
"audio-keyboard-response","309","929327","0.0-1.0-1.8-1.284-0.284","null","letters/5.wav","","null","null","n-back-trial","0","3","NT","8","0","0","0","","","",""
"audio-keyboard-response","310","931843","0.0-1.0-1.8-1.285-0.285","null","letters/1.wav","","null","null","n-back-trial","0","3","NT","8","0","0","0","","","",""
"audio-keyboard-response","311","934348","0.0-1.0-1.8-1.286-0.286","null","letters/7.wav","","null","null","n-back-trial","0","3","NT","8","0","0","0","","","",""
"audio-keyboard-response","312","936857","0.0-1.0-1.8-1.287-0.287","null","letters/6.wav","","null","null","n-back-trial","0","3","NT","8","0","0","0","","","",""
"audio-keyboard-response","313","939373","0.0-1.0-1.8-1.288-0.288","1240","letters/1.wav","","32","1240","n-back-trial","1","3","T","9","0","1","0","","","",""
"audio-keyboard-response","314","941883","0.0-1.0-1.8-1.289-0.289","null","letters/4.wav","","null","null","n-back-trial","0","3","NT","9","0","0","0","","","",""
"audio-keyboard-response","315","944388","0.0-1.0-1.8-1.290-0.290","null","letters/7.wav","","null","null","n-back-trial","0","3","NT","9","0","0","0","","","",""
"audio-keyboard-response","316","946908","0.0-1.0-1.8-1.291-0.291","null","letters/2.wav","","null","null","n-back-trial","0","3","NT","9","0","0","0","","","",""
"audio-keyboard-response","317","949419","0.0-1.0-1.8-1.292-0.292","1272","letters/4.wav","","32","1272","n-back-trial","1","3","T","10","0","1","0","","","",""
"audio-keyboard-response","318","951929","0.0-1.0-1.8-1.293-0.293","null","letters/2.wav","","null","null","n-back-trial","0","3","NT","10","0","0","0","","","",""
"audio-keyboard-response","319","954444","0.0-1.0-1.8-1.294-0.294","null","letters/7.wav","","null","null","n-back-trial","0","3","NT","10","0","0","0","","","",""
"audio-keyboard-response","320","956959","0.0-1.0-1.8-1.295-0.295","null","letters/6.wav","","null","null","n-back-trial","0","3","NT","10","0","0","0","","","",""
"html-button-response","321","970803","0.0-1.0-1.8-2.8","13842","<p>You may take a short break if you wish.</p><p>Click the button below when you are ready to continue.</p>","0","","","n-back-run-summary","","3","","","","","","+1","10","0",""
"html-button-response","322","981730","0.0-1.0-1.9-0.9","10926","<p>You will now complete a <strong>4-back.</strong></p><p>Remember, this means that you should press SPACEBAR every time the sound you hear matches the one presented <strong>4</strong> position(s) previously.</p>","0","","","","","","","","","","","","","",""
"audio-keyboard-response","323","984250","0.0-1.0-1.9-1.296-0.296","null","letters/5.wav","","null","null","n-back-trial","0","4","FIRSTS","0","0","0","0","","","",""
"audio-keyboard-response","324","986757","0.0-1.0-1.9-1.297-0.297","null","letters/7.wav","","null","null","n-back-trial","0","4","FIRSTS","0","0","0","0","","","",""
"audio-keyboard-response","325","989258","0.0-1.0-1.9-1.298-0.298","null","letters/1.wav","","null","null","n-back-trial","0","4","FIRSTS","0","0","0","0","","","",""
"audio-keyboard-response","326","991770","0.0-1.0-1.9-1.299-0.299","null","letters/5.wav","","null","null","n-back-trial","0","4","FIRSTS","0","0","0","0","","","",""
"audio-keyboard-response","327","994291","0.0-1.0-1.9-1.300-0.300","null","letters/4.wav","","null","null","n-back-trial","0","4","NT","0","0","0","0","","","",""
"audio-keyboard-response","328","996801","0.0-1.0-1.9-1.301-0.301","1520","letters/1.wav","","32","1520","n-back-trial","1","4","NT","0","1","0","1","","","",""
"audio-keyboard-response","329","999321","0.0-1.0-1.9-1.302-0.302","null","letters/1.wav","","null","null","n-back-trial","0","4","T","0","1","0","0","","","",""
"audio-keyboard-response","330","1001831","0.0-1.0-1.9-1.303-0.303","null","letters/8.wav","","null","null","n-back-trial","0","4","NT","0","1","0","0","","","",""
"audio-keyboard-response","331","1004351","0.0-1.0-1.9-1.304-0.304","null","letters/4.wav","","null","null","n-back-trial","0","4","T","0","1","0","0","","","",""
"audio-keyboard-response","332","1006871","0.0-1.0-1.9-1.305-0.305","1011","letters/1.wav","","32","1011","n-back-trial","1","4","T","1","1","1","0","","","",""
"audio-keyboard-response","333","1009381","0.0-1.0-1.9-1.306-0.306","621","letters/1.wav","","32","621","n-back-trial","1","4","T","2","1","1","0","","","",""
"audio-keyboard-response","334","1011891","0.0-1.0-1.9-1.307-0.307","null","letters/6.wav","","null","null","n-back-trial","0","4","NT","2","1","0","0","","","",""
"audio-keyboard-response","335","1014411","0.0-1.0-1.9-1.308-0.308","731","letters/4.wav","","32","731","n-back-trial","1","4","T","3","1","1","0","","","",""
"audio-keyboard-response","336","1016922","0.0-1.0-1.9-1.309-0.309","1349","letters/1.wav","","32","1349","n-back-trial","1","4","T","4","1","1","0","","","",""
"audio-keyboard-response","337","1019442","0.0-1.0-1.9-1.310-0.310","661","letters/1.wav","","32","661","n-back-trial","1","4","T","5","1","1","0","","","",""
"audio-keyboard-response","338","1021952","0.0-1.0-1.9-1.311-0.311","null","letters/8.wav","","null","null","n-back-trial","0","4","NT","5","1","0","0","","","",""
"audio-keyboard-response","339","1024462","0.0-1.0-1.9-1.312-0.312","829","letters/6.wav","","32","829","n-back-trial","1","4","NT","5","2","0","1","","","",""
"audio-keyboard-response","340","1026982","0.0-1.0-1.9-1.313-0.313","null","letters/7.wav","","null","null","n-back-trial","0","4","NT","5","2","0","0","","","",""
"audio-keyboard-response","341","1029503","0.0-1.0-1.9-1.314-0.314","1168","letters/1.wav","","32","1168","n-back-trial","1","4","T","6","2","1","0","","","",""
"audio-keyboard-response","342","1032013","0.0-1.0-1.9-1.315-0.315","null","letters/7.wav","","null","null","n-back-trial","0","4","NT","6","2","0","0","","","",""
"audio-keyboard-response","343","1034523","0.0-1.0-1.9-1.316-0.316","null","letters/5.wav","","null","null","n-back-trial","0","4","NT","6","2","0","0","","","",""
"audio-keyboard-response","344","1037043","0.0-1.0-1.9-1.317-0.317","null","letters/6.wav","","null","null","n-back-trial","0","4","NT","6","2","0","0","","","",""
"audio-keyboard-response","345","1039548","0.0-1.0-1.9-1.318-0.318","null","letters/7.wav","","null","null","n-back-trial","0","4","NT","6","2","0","0","","","",""
"audio-keyboard-response","346","1042053","0.0-1.0-1.9-1.319-0.319","811","letters/7.wav","","32","811","n-back-trial","1","4","T","7","2","1","0","","","",""
"audio-keyboard-response","347","1044563","0.0-1.0-1.9-1.320-0.320","null","letters/1.wav","","null","null","n-back-trial","0","4","NT","7","2","0","0","","","",""
"audio-keyboard-response","348","1047074","0.0-1.0-1.9-1.321-0.321","null","letters/8.wav","","null","null","n-back-trial","0","4","NT","7","2","0","0","","","",""
"audio-keyboard-response","349","1049583","0.0-1.0-1.9-1.322-0.322","null","letters/8.wav","","null","null","n-back-trial","0","4","NT","7","2","0","0","","","",""
"audio-keyboard-response","350","1052094","0.0-1.0-1.9-1.323-0.323","null","letters/4.wav","","null","null","n-back-trial","0","4","NT","7","2","0","0","","","",""
"audio-keyboard-response","351","1054614","0.0-1.0-1.9-1.324-0.324","null","letters/1.wav","","null","null","n-back-trial","0","4","T","7","2","0","0","","","",""
"audio-keyboard-response","352","1057134","0.0-1.0-1.9-1.325-0.325","null","letters/2.wav","","null","null","n-back-trial","0","4","NT","7","2","0","0","","","",""
"audio-keyboard-response","353","1059654","0.0-1.0-1.9-1.326-0.326","null","letters/3.wav","","null","null","n-back-trial","0","4","NT","7","2","0","0","","","",""
"audio-keyboard-response","354","1062159","0.0-1.0-1.9-1.327-0.327","1160","letters/8.wav","","32","1160","n-back-trial","1","4","NT","7","3","0","1","","","",""
"audio-keyboard-response","355","1064674","0.0-1.0-1.9-1.328-0.328","null","letters/5.wav","","null","null","n-back-trial","0","4","NT","7","3","0","0","","","",""
"audio-keyboard-response","356","1067184","0.0-1.0-1.9-1.329-0.329","null","letters/1.wav","","null","null","n-back-trial","0","4","NT","7","3","0","0","","","",""
"html-button-response","357","1070458","0.0-1.0-1.9-2.9","3272","<p>You may take a short break if you wish.</p><p>Click the button below when you are ready to continue.</p>","0","","","n-back-run-summary","","4","","","","","","0","7","3",""
"html-button-response","358","1072626","0.0-1.0-2.0","2167","<p>Thank you for your responses.</p><p>This concludes the auditory memory task.</p>","0","","","ANB-SUMMARY","","","","","","","","","","","1,2,3,4,3,4,3,3,3,4,4"
