"trial_type","trial_index","time_elapsed","internal_node_id","subject","rt","stimulus","key_press","responses","word","answer"
"pavlovia","0","6","0.0-0.0","h5nfw67ftwl","","","","","",""
"html-keyboard-response","1","63172","0.0-1.0","h5nfw67ftwl","63162.59999999404","<p>Welcome to the experiment. In the first part of the study you will hear a series of words. Please listen carefully to each word.</p><p>(Press any key to continue.)</p>","32","","",""
"html-keyboard-response","2","73553","0.0-2.0","h5nfw67ftwl","9862.699999988079","<p>It is crucial that you pay attention to each word as you will be asked, after a short pause, to type the word that you heard. You will know when to begin typing when you see a text box on the screen. After typing the word that you heard, press Enter to proceed.</p><p>(Press any key to continue)</p>","32","","",""
"html-keyboard-response","3","82607","0.0-3.0","h5nfw67ftwl","8540.10000000894","<p>You will need to listen carefully to each word as they are difficult to understand. For this reason, please be as attentive as possible to each word.</p><p>When you are ready, press any key to begin the experiment.</p>","32","","",""
"html-keyboard-response","4","84635","0.0-4.0","h5nfw67ftwl","null","<div id=""countdown"">***</div>","null","","",""
"audio-keyboard-response","5","85078","0.0-5.0","h5nfw67ftwl","null","perceptual_learning_stimuli/t2/r_fool.wav","null","","",""
"survey-text","6","87305","0.0-6.0","h5nfw67ftwl","2210.2000000029802","","","{""Q0"":""flip""}","fool","flip"
"html-keyboard-response","7","89829","0.0-7.0","h5nfw67ftwl","null","<div id=""countdown"">***</div>","null","","",""
"audio-keyboard-response","8","89998","0.0-8.0","h5nfw67ftwl","null","perceptual_learning_stimuli/t2/r_tea.wav","null","","",""
"survey-text","9","93423","0.0-9.0","h5nfw67ftwl","3421.4000000059605","","","{""Q0"":""tee""}","tea","tee"
"html-keyboard-response","10","95927","0.0-10.0","h5nfw67ftwl","null","<div id=""countdown"">***</div>","null","","",""
"audio-keyboard-response","11","96209","0.0-11.0","h5nfw67ftwl","null","perceptual_learning_stimuli/t2/r_cause.wav","null","","",""
"survey-text","12","101479","0.0-12.0","h5nfw67ftwl","5267","","","{""Q0"":""car""}","cause","car"
"html-keyboard-response","13","103990","0.0-13.0","h5nfw67ftwl","null","<div id=""countdown"">***</div>","null","","",""
"audio-keyboard-response","14","104419","0.0-14.0","h5nfw67ftwl","null","perceptual_learning_stimuli/t2/r_booth.wav","null","","",""
"survey-text","15","107687","0.0-15.0","h5nfw67ftwl","3264.8999999910593","","","{""Q0"":""bush""}","booth","bush"
"html-keyboard-response","16","110207","0.0-16.0","h5nfw67ftwl","null","<div id=""countdown"">***</div>","null","","",""
"audio-keyboard-response","17","110609","0.0-17.0","h5nfw67ftwl","null","perceptual_learning_stimuli/t2/r_boss.wav","null","","",""
"survey-text","18","113471","0.0-18.0","h5nfw67ftwl","2858.7000000029802","","","{""Q0"":""bush""}","boss","bush"
"html-keyboard-response","19","116001","0.0-19.0","h5nfw67ftwl","null","<div id=""countdown"">***</div>","null","","",""
"audio-keyboard-response","20","116319","0.0-20.0","h5nfw67ftwl","null","perceptual_learning_stimuli/t2/r_hush.wav","null","","",""
"survey-text","21","118399","0.0-21.0","h5nfw67ftwl","2076.3999999910593","","","{""Q0"":""hash""}","hush","hash"
"html-keyboard-response","22","120909","0.0-22.0","h5nfw67ftwl","null","<div id=""countdown"">***</div>","null","","",""
"audio-keyboard-response","23","121280","0.0-23.0","h5nfw67ftwl","null","perceptual_learning_stimuli/t2/r_fought.wav","null","","",""
"survey-text","24","123222","0.0-24.0","h5nfw67ftwl","1940","","","{""Q0"":""foot""}","fought","foot"
"html-keyboard-response","25","125731","0.0-25.0","h5nfw67ftwl","null","<div id=""countdown"">***</div>","null","","",""
"audio-keyboard-response","26","126239","0.0-26.0","h5nfw67ftwl","null","perceptual_learning_stimuli/t2/r_blast.wav","null","","",""
"survey-text","27","128238","0.0-27.0","h5nfw67ftwl","1995.5","","","{""Q0"":""blast""}","blast","blast"
"html-keyboard-response","28","130748","0.0-28.0","h5nfw67ftwl","null","<div id=""countdown"">***</div>","null","","",""
"audio-keyboard-response","29","131069","0.0-29.0","h5nfw67ftwl","null","perceptual_learning_stimuli/t2/r_tooth.wav","null","","",""
"survey-text","30","157982","0.0-30.0","h5nfw67ftwl","26909.5","","","{""Q0"":""too""}","tooth","too"
"html-keyboard-response","31","160495","0.0-31.0","h5nfw67ftwl","null","<div id=""countdown"">***</div>","null","","",""
"audio-keyboard-response","32","160801","0.0-32.0","h5nfw67ftwl","null","perceptual_learning_stimuli/t2/r_knock.wav","null","","",""
"survey-text","33","162502","0.0-33.0","h5nfw67ftwl","1697.2999999970198","","","{""Q0"":""mech""}","knock","mech"
"html-keyboard-response","34","165006","0.0-34.0","h5nfw67ftwl","null","<div id=""countdown"">***</div>","null","","",""
"audio-keyboard-response","35","165601","0.0-35.0","h5nfw67ftwl","null","perceptual_learning_stimuli/t2/r_cloak.wav","null","","",""
"survey-text","36","189407","0.0-36.0","h5nfw67ftwl","23801.70000000298","","","{""Q0"":""float""}","cloak","float"
"html-keyboard-response","37","191926","0.0-37.0","h5nfw67ftwl","null","<div id=""countdown"">***</div>","null","","",""
"audio-keyboard-response","38","192163","0.0-38.0","h5nfw67ftwl","null","perceptual_learning_stimuli/t2/r_pad.wav","null","","",""
"survey-text","39","193303","0.0-39.0","h5nfw67ftwl","1136","","","{""Q0"":""pad""}","pad","pad"
"html-keyboard-response","40","195812","0.0-40.0","h5nfw67ftwl","null","<div id=""countdown"">***</div>","null","","",""
"audio-keyboard-response","41","196114","0.0-41.0","h5nfw67ftwl","null","perceptual_learning_stimuli/t2/r_dish.wav","null","","",""
"survey-text","42","197503","0.0-42.0","h5nfw67ftwl","1385.8999999910593","","","{""Q0"":""dish""}","dish","dish"
"html-keyboard-response","43","200020","0.0-43.0","h5nfw67ftwl","null","<div id=""countdown"">***</div>","null","","",""
"audio-keyboard-response","44","200254","0.0-44.0","h5nfw67ftwl","null","perceptual_learning_stimuli/t2/r_fee.wav","null","","",""
"survey-text","45","201886","0.0-45.0","h5nfw67ftwl","1629.2000000029802","","","{""Q0"":""feet""}","fee","feet"
"html-keyboard-response","46","204402","0.0-46.0","h5nfw67ftwl","null","<div id=""countdown"">***</div>","null","","",""
"audio-keyboard-response","47","204614","0.0-47.0","h5nfw67ftwl","null","perceptual_learning_stimuli/t2/r_pin.wav","null","","",""
"survey-text","48","210471","0.0-48.0","h5nfw67ftwl","5853.5999999940395","","","{""Q0"":""car""}","pin","car"
"html-keyboard-response","49","212986","0.0-49.0","h5nfw67ftwl","null","<div id=""countdown"">***</div>","null","","",""
"audio-keyboard-response","50","213424","0.0-50.0","h5nfw67ftwl","null","perceptual_learning_stimuli/t2/r_gleam.wav","null","","",""
"survey-text","51","219975","0.0-51.0","h5nfw67ftwl","6546.9000000059605","","","{""Q0"":""golem""}","gleam","golem"
"html-keyboard-response","52","222499","0.0-52.0","h5nfw67ftwl","null","<div id=""countdown"">***</div>","null","","",""
"audio-keyboard-response","53","222805","0.0-53.0","h5nfw67ftwl","null","perceptual_learning_stimuli/t2/r_itch.wav","null","","",""
"survey-text","54","226183","0.0-54.0","h5nfw67ftwl","3374.5","","","{""Q0"":""itch""}","itch","itch"
"html-keyboard-response","55","228700","0.0-55.0","h5nfw67ftwl","null","<div id=""countdown"">***</div>","null","","",""
"audio-keyboard-response","56","229155","0.0-56.0","h5nfw67ftwl","null","perceptual_learning_stimuli/t2/r_green.wav","null","","",""
"survey-text","57","231839","0.0-57.0","h5nfw67ftwl","2680.199999988079","","","{""Q0"":""driving""}","green","driving"
"html-keyboard-response","58","234349","0.0-58.0","h5nfw67ftwl","null","<div id=""countdown"">***</div>","null","","",""
"audio-keyboard-response","59","234665","0.0-59.0","h5nfw67ftwl","null","perceptual_learning_stimuli/t2/r_your.wav","null","","",""
"survey-text","60","236103","0.0-60.0","h5nfw67ftwl","1433.7999999970198","","","{""Q0"":""ear""}","your","ear"
"html-keyboard-response","61","238614","0.0-61.0","h5nfw67ftwl","null","<div id=""countdown"">***</div>","null","","",""
"audio-keyboard-response","62","238956","0.0-62.0","h5nfw67ftwl","null","perceptual_learning_stimuli/t2/r_soon.wav","null","","",""
"survey-text","63","242543","0.0-63.0","h5nfw67ftwl","3583.2000000029802","","","{""Q0"":""flip""}","soon","flip"
"html-keyboard-response","64","245053","0.0-64.0","h5nfw67ftwl","null","<div id=""countdown"">***</div>","null","","",""
"audio-keyboard-response","65","245305","0.0-65.0","h5nfw67ftwl","null","perceptual_learning_stimuli/t2/r_wheat.wav","null","","",""
"survey-text","66","246822","0.0-66.0","h5nfw67ftwl","1513.2999999970198","","","{""Q0"":""read""}","wheat","read"
"html-keyboard-response","67","249340","0.0-67.0","h5nfw67ftwl","null","<div id=""countdown"">***</div>","null","","",""
"audio-keyboard-response","68","249576","0.0-68.0","h5nfw67ftwl","null","perceptual_learning_stimuli/t2/r_tap.wav","null","","",""
"survey-text","69","250526","0.0-69.0","h5nfw67ftwl","946.7999999970198","","","{""Q0"":""tap""}","tap","tap"
"html-keyboard-response","70","253055","0.0-70.0","h5nfw67ftwl","null","<div id=""countdown"">***</div>","null","","",""
"audio-keyboard-response","71","253376","0.0-71.0","h5nfw67ftwl","null","perceptual_learning_stimuli/t2/r_leak.wav","null","","",""
"survey-text","72","254742","0.0-72.0","h5nfw67ftwl","1362.5999999940395","","","{""Q0"":""link""}","leak","link"
"html-keyboard-response","73","257253","0.0-73.0","h5nfw67ftwl","null","<div id=""countdown"">***</div>","null","","",""
"audio-keyboard-response","74","257606","0.0-74.0","h5nfw67ftwl","null","perceptual_learning_stimuli/t2/r_jog.wav","null","","",""
"survey-text","75","268470","0.0-75.0","h5nfw67ftwl","10861","","","{""Q0"":""jud""}","jog","jud"
"html-keyboard-response","76","270993","0.0-76.0","h5nfw67ftwl","null","<div id=""countdown"">***</div>","null","","",""
"audio-keyboard-response","77","271527","0.0-77.0","h5nfw67ftwl","null","perceptual_learning_stimuli/t2/r_fluff.wav","null","","",""
"survey-text","78","273158","0.0-78.0","h5nfw67ftwl","1627.9000000059605","","","{""Q0"":""fluff""}","fluff","fluff"
"html-keyboard-response","79","275667","0.0-79.0","h5nfw67ftwl","null","<div id=""countdown"">***</div>","null","","",""
"audio-keyboard-response","80","276027","0.0-80.0","h5nfw67ftwl","null","perceptual_learning_stimuli/t2/r_beach.wav","null","","",""
"survey-text","81","279526","0.0-81.0","h5nfw67ftwl","3496","","","{""Q0"":""itch""}","beach","itch"
"html-keyboard-response","82","282034","0.0-82.0","h5nfw67ftwl","null","<div id=""countdown"">***</div>","null","","",""
"audio-keyboard-response","83","282327","0.0-83.0","h5nfw67ftwl","null","perceptual_learning_stimuli/t2/r_saw.wav","null","","",""
"survey-text","84","283990","0.0-84.0","h5nfw67ftwl","1659.199999988079","","","{""Q0"":""saw""}","saw","saw"
"html-keyboard-response","85","286504","0.0-85.0","h5nfw67ftwl","null","<div id=""countdown"">***</div>","null","","",""
"audio-keyboard-response","86","286868","0.0-86.0","h5nfw67ftwl","null","perceptual_learning_stimuli/t2/r_shine.wav","null","","",""
"survey-text","87","290318","0.0-87.0","h5nfw67ftwl","3447.0999999940395","","","{""Q0"":""shire""}","shine","shire"
"html-keyboard-response","88","292828","0.0-88.0","h5nfw67ftwl","null","<div id=""countdown"">***</div>","null","","",""
"audio-keyboard-response","89","293208","0.0-89.0","h5nfw67ftwl","null","perceptual_learning_stimuli/t2/r_goon.wav","null","","",""
"survey-text","90","296718","0.0-90.0","h5nfw67ftwl","3506.800000011921","","","{""Q0"":""glue""}","goon","glue"
"html-keyboard-response","91","299239","0.0-91.0","h5nfw67ftwl","null","<div id=""countdown"">***</div>","null","","",""
"audio-keyboard-response","92","299498","0.0-92.0","h5nfw67ftwl","null","perceptual_learning_stimuli/t2/r_buck.wav","null","","",""
"survey-text","93","301822","0.0-93.0","h5nfw67ftwl","2320.5","","","{""Q0"":""back""}","buck","back"
"html-keyboard-response","94","304342","0.0-94.0","h5nfw67ftwl","null","<div id=""countdown"">***</div>","null","","",""
"audio-keyboard-response","95","304568","0.0-95.0","h5nfw67ftwl","null","perceptual_learning_stimuli/t2/r_ought.wav","null","","",""
"survey-text","96","306934","0.0-96.0","h5nfw67ftwl","2362.4000000059605","","","{""Q0"":""ought""}","ought","ought"
"html-keyboard-response","97","309451","0.0-97.0","h5nfw67ftwl","null","<div id=""countdown"">***</div>","null","","",""
"audio-keyboard-response","98","309919","0.0-98.0","h5nfw67ftwl","null","perceptual_learning_stimuli/t2/r_grad.wav","null","","",""
"survey-text","99","314110","0.0-99.0","h5nfw67ftwl","4187.9000000059605","","","{""Q0"":""dread""}","grad","dread"
"html-keyboard-response","100","316614","0.0-100.0","h5nfw67ftwl","null","<div id=""countdown"">***</div>","null","","",""
"audio-keyboard-response","101","316929","0.0-101.0","h5nfw67ftwl","null","perceptual_learning_stimuli/t2/r_lag.wav","null","","",""
"survey-text","102","318358","0.0-102.0","h5nfw67ftwl","1425.5","","","{""Q0"":""lag""}","lag","lag"
"html-keyboard-response","103","320874","0.0-103.0","h5nfw67ftwl","null","<div id=""countdown"">***</div>","null","","",""
"audio-keyboard-response","104","321039","0.0-104.0","h5nfw67ftwl","null","perceptual_learning_stimuli/t2/r_key.wav","null","","",""
"survey-text","105","322678","0.0-105.0","h5nfw67ftwl","1635","","","{""Q0"":""pee""}","key","pee"
"html-keyboard-response","106","325206","0.0-106.0","h5nfw67ftwl","null","<div id=""countdown"">***</div>","null","","",""
"audio-keyboard-response","107","325559","0.0-107.0","h5nfw67ftwl","null","perceptual_learning_stimuli/t2/r_fog.wav","null","","",""
"survey-text","108","330950","0.0-108.0","h5nfw67ftwl","5387","","","{""Q0"":""fud""}","fog","fud"
"html-keyboard-response","109","333468","0.0-109.0","h5nfw67ftwl","null","<div id=""countdown"">***</div>","null","","",""
"audio-keyboard-response","110","333960","0.0-110.0","h5nfw67ftwl","null","perceptual_learning_stimuli/t2/r_split.wav","null","","",""
"survey-text","111","336630","0.0-111.0","h5nfw67ftwl","2666.5999999940395","","","{""Q0"":""squirt""}","split","squirt"
"html-keyboard-response","112","339146","0.0-112.0","h5nfw67ftwl","null","<div id=""countdown"">***</div>","null","","",""
"audio-keyboard-response","113","339400","0.0-113.0","h5nfw67ftwl","null","perceptual_learning_stimuli/t2/r_calf.wav","null","","",""
"survey-text","114","341790","0.0-114.0","h5nfw67ftwl","2386.2999999970198","","","{""Q0"":""tap""}","calf","tap"
"html-keyboard-response","115","344302","0.0-115.0","h5nfw67ftwl","null","<div id=""countdown"">***</div>","null","","",""
"audio-keyboard-response","116","344670","0.0-116.0","h5nfw67ftwl","null","perceptual_learning_stimuli/t2/r_beg.wav","null","","",""
"survey-text","117","346238","0.0-117.0","h5nfw67ftwl","1564.0999999940395","","","{""Q0"":""dud""}","beg","dud"
"html-keyboard-response","118","348761","0.0-118.0","h5nfw67ftwl","null","<div id=""countdown"">***</div>","null","","",""
"audio-keyboard-response","119","348990","0.0-119.0","h5nfw67ftwl","null","perceptual_learning_stimuli/t2/r_chew.wav","null","","",""
"survey-text","120","350598","0.0-120.0","h5nfw67ftwl","1604.0999999940395","","","{""Q0"":""shoe""}","chew","shoe"
"html-keyboard-response","121","353110","0.0-121.0","h5nfw67ftwl","null","<div id=""countdown"">***</div>","null","","",""
"audio-keyboard-response","122","353401","0.0-122.0","h5nfw67ftwl","null","perceptual_learning_stimuli/t2/r_head.wav","null","","",""
"survey-text","123","354686","0.0-123.0","h5nfw67ftwl","1281.5999999940395","","","{""Q0"":""head""}","head","head"
"html-keyboard-response","124","357195","0.0-124.0","h5nfw67ftwl","null","<div id=""countdown"">***</div>","null","","",""
"audio-keyboard-response","125","357521","0.0-125.0","h5nfw67ftwl","null","perceptual_learning_stimuli/t2/r_said.wav","null","","",""
"survey-text","126","358942","0.0-126.0","h5nfw67ftwl","1417.2999999970198","","","{""Q0"":""said""}","said","said"
"html-keyboard-response","127","361467","0.0-127.0","h5nfw67ftwl","null","<div id=""countdown"">***</div>","null","","",""
"audio-keyboard-response","128","361751","0.0-128.0","h5nfw67ftwl","null","perceptual_learning_stimuli/t2/r_chop.wav","null","","",""
"survey-text","129","365951","0.0-129.0","h5nfw67ftwl","4195.29999999702","","","{""Q0"":""shot""}","chop","shot"
"html-keyboard-response","130","368456","0.0-130.0","h5nfw67ftwl","null","<div id=""countdown"">***</div>","null","","",""
"audio-keyboard-response","131","368833","0.0-131.0","h5nfw67ftwl","null","perceptual_learning_stimuli/t2/r_match.wav","null","","",""
"survey-text","132","370527","0.0-132.0","h5nfw67ftwl","1690.7999999970198","","","{""Q0"":""latch""}","match","latch"
"html-keyboard-response","133","373047","0.0-133.0","h5nfw67ftwl","null","<div id=""countdown"">***</div>","null","","",""
"audio-keyboard-response","134","373313","0.0-134.0","h5nfw67ftwl","null","perceptual_learning_stimuli/t2/r_peg.wav","null","","",""
"survey-text","135","376119","0.0-135.0","h5nfw67ftwl","2802.5","","","{""Q0"":""hug""}","peg","hug"
"html-keyboard-response","136","378637","0.0-136.0","h5nfw67ftwl","null","<div id=""countdown"">***</div>","null","","",""
"audio-keyboard-response","137","378953","0.0-137.0","h5nfw67ftwl","null","perceptual_learning_stimuli/t2/r_weak.wav","null","","",""
"survey-text","138","382007","0.0-138.0","h5nfw67ftwl","3050.2999999970198","","","{""Q0"":""reek""}","weak","reek"
"html-keyboard-response","139","384534","0.0-139.0","h5nfw67ftwl","null","<div id=""countdown"">***</div>","null","","",""
"audio-keyboard-response","140","384963","0.0-140.0","h5nfw67ftwl","null","perceptual_learning_stimuli/t2/r_flute.wav","null","","",""
"survey-text","141","386319","0.0-141.0","h5nfw67ftwl","1351.7000000029802","","","{""Q0"":""float""}","flute","float"
"html-keyboard-response","142","388826","0.0-142.0","h5nfw67ftwl","null","<div id=""countdown"">***</div>","null","","",""
"audio-keyboard-response","143","389033","0.0-143.0","h5nfw67ftwl","null","perceptual_learning_stimuli/t2/r_ton.wav","null","","",""
"survey-text","144","391527","0.0-144.0","h5nfw67ftwl","2489.7000000029802","","","{""Q0"":""tap""}","ton","tap"
"html-keyboard-response","145","394035","0.0-145.0","h5nfw67ftwl","null","<div id=""countdown"">***</div>","null","","",""
"audio-keyboard-response","146","394374","0.0-146.0","h5nfw67ftwl","null","perceptual_learning_stimuli/t2/r_trod.wav","null","","",""
"survey-text","147","398279","0.0-147.0","h5nfw67ftwl","3901.3999999910593","","","{""Q0"":""drawed""}","trod","drawed"
"html-keyboard-response","148","400800","0.0-148.0","h5nfw67ftwl","null","<div id=""countdown"">***</div>","null","","",""
"audio-keyboard-response","149","401194","0.0-149.0","h5nfw67ftwl","null","perceptual_learning_stimuli/t2/r_hunch.wav","null","","",""
"survey-text","150","404911","0.0-150.0","h5nfw67ftwl","3713.199999988079","","","{""Q0"":""hunch""}","hunch","hunch"
"html-keyboard-response","151","407431","0.0-151.0","h5nfw67ftwl","null","<div id=""countdown"">***</div>","null","","",""
"audio-keyboard-response","152","407775","0.0-152.0","h5nfw67ftwl","null","perceptual_learning_stimuli/t2/r_suit.wav","null","","",""
"survey-text","153","410319","0.0-153.0","h5nfw67ftwl","2540.7000000029802","","","{""Q0"":""soot""}","suit","soot"
"html-keyboard-response","154","412837","0.0-154.0","h5nfw67ftwl","null","<div id=""countdown"">***</div>","null","","",""
"audio-keyboard-response","155","413155","0.0-155.0","h5nfw67ftwl","null","perceptual_learning_stimuli/t2/r_pump.wav","null","","",""
"survey-text","156","414079","0.0-156.0","h5nfw67ftwl","920.4000000059605","","","{""Q0"":""tap""}","pump","tap"
"html-keyboard-response","157","416585","0.0-157.0","h5nfw67ftwl","null","<div id=""countdown"">***</div>","null","","",""
"audio-keyboard-response","158","416935","0.0-158.0","h5nfw67ftwl","null","perceptual_learning_stimuli/t2/r_rude.wav","null","","",""
"survey-text","159","418871","0.0-159.0","h5nfw67ftwl","1932.2999999970198","","","{""Q0"":""road""}","rude","road"
"html-keyboard-response","160","421389","0.0-160.0","h5nfw67ftwl","null","<div id=""countdown"">***</div>","null","","",""
"audio-keyboard-response","161","421685","0.0-161.0","h5nfw67ftwl","null","perceptual_learning_stimuli/t2/r_hip.wav","null","","",""
"survey-text","162","423079","0.0-162.0","h5nfw67ftwl","1390","","","{""Q0"":""hit""}","hip","hit"
"html-keyboard-response","163","425600","0.0-163.0","h5nfw67ftwl","null","<div id=""countdown"">***</div>","null","","",""
"audio-keyboard-response","164","426085","0.0-164.0","h5nfw67ftwl","null","perceptual_learning_stimuli/t2/r_thresh.wav","null","","",""
"survey-text","165","428399","0.0-165.0","h5nfw67ftwl","2309.6000000089407","","","{""Q0"":""thresh""}","thresh","thresh"
"html-keyboard-response","166","430913","0.0-166.0","h5nfw67ftwl","null","<div id=""countdown"">***</div>","null","","",""
"audio-keyboard-response","167","431166","0.0-167.0","h5nfw67ftwl","null","perceptual_learning_stimuli/t2/r_wood.wav","null","","",""
"survey-text","168","435823","0.0-168.0","h5nfw67ftwl","4653.9000000059605","","","{""Q0"":""old""}","wood","old"
"html-keyboard-response","169","438341","0.0-169.0","h5nfw67ftwl","null","<div id=""countdown"">***</div>","null","","",""
"audio-keyboard-response","170","438596","0.0-170.0","h5nfw67ftwl","null","perceptual_learning_stimuli/t2/r_gem.wav","null","","",""
"survey-text","171","441167","0.0-171.0","h5nfw67ftwl","2567.1000000089407","","","{""Q0"":""jump""}","gem","jump"
"html-keyboard-response","172","443689","0.0-172.0","h5nfw67ftwl","null","<div id=""countdown"">***</div>","null","","",""
"audio-keyboard-response","173","444036","0.0-173.0","h5nfw67ftwl","null","perceptual_learning_stimuli/t2/r_sheep.wav","null","","",""
"survey-text","174","445727","0.0-174.0","h5nfw67ftwl","1686.7000000029802","","","{""Q0"":""sheep""}","sheep","sheep"
"html-keyboard-response","175","448255","0.0-175.0","h5nfw67ftwl","null","<div id=""countdown"">***</div>","null","","",""
"audio-keyboard-response","176","448527","0.0-176.0","h5nfw67ftwl","null","perceptual_learning_stimuli/t2/r_rot.wav","null","","",""
"survey-text","177","449751","0.0-177.0","h5nfw67ftwl","1220.6000000089407","","","{""Q0"":""rod""}","rot","rod"
"html-keyboard-response","178","452277","0.0-178.0","h5nfw67ftwl","null","<div id=""countdown"">***</div>","null","","",""
"audio-keyboard-response","179","452567","0.0-179.0","h5nfw67ftwl","null","perceptual_learning_stimuli/t2/r_need.wav","null","","",""
"survey-text","180","453799","0.0-180.0","h5nfw67ftwl","1228.300000011921","","","{""Q0"":""read""}","need","read"
"html-keyboard-response","181","456314","0.0-181.0","h5nfw67ftwl","null","<div id=""countdown"">***</div>","null","","",""
"audio-keyboard-response","182","456757","0.0-182.0","h5nfw67ftwl","null","perceptual_learning_stimuli/t2/r_gift.wav","null","","",""
"survey-text","183","457879","0.0-183.0","h5nfw67ftwl","1117.7999999970198","","","{""Q0"":""gift""}","gift","gift"
"html-keyboard-response","184","460395","0.0-184.0","h5nfw67ftwl","null","<div id=""countdown"">***</div>","null","","",""
"audio-keyboard-response","185","460677","0.0-185.0","h5nfw67ftwl","null","perceptual_learning_stimuli/t2/r_hat.wav","null","","",""
"survey-text","186","461607","0.0-186.0","h5nfw67ftwl","925.7000000029802","","","{""Q0"":""hat""}","hat","hat"
"html-keyboard-response","187","464119","0.0-187.0","h5nfw67ftwl","null","<div id=""countdown"">***</div>","null","","",""
"audio-keyboard-response","188","464367","0.0-188.0","h5nfw67ftwl","null","perceptual_learning_stimuli/t2/r_dew.wav","null","","",""
"survey-text","189","466407","0.0-189.0","h5nfw67ftwl","2035.7000000029802","","","{""Q0"":""do""}","dew","do"
"html-keyboard-response","190","468930","0.0-190.0","h5nfw67ftwl","null","<div id=""countdown"">***</div>","null","","",""
"audio-keyboard-response","191","469208","0.0-191.0","h5nfw67ftwl","null","perceptual_learning_stimuli/t2/r_path.wav","null","","",""
"survey-text","192","473527","0.0-192.0","h5nfw67ftwl","4314.9000000059605","","","{""Q0"":""pash""}","path","pash"
"html-keyboard-response","193","476036","0.0-193.0","h5nfw67ftwl","null","<div id=""countdown"">***</div>","null","","",""
"audio-keyboard-response","194","476408","0.0-194.0","h5nfw67ftwl","null","perceptual_learning_stimuli/t2/r_thick.wav","null","","",""
"survey-text","195","481327","0.0-195.0","h5nfw67ftwl","4915.20000000298","","","{""Q0"":""flick""}","thick","flick"
"html-keyboard-response","196","483845","0.0-196.0","h5nfw67ftwl","null","<div id=""countdown"">***</div>","null","","",""
"audio-keyboard-response","197","484108","0.0-197.0","h5nfw67ftwl","null","perceptual_learning_stimuli/t2/r_cop.wav","null","","",""
"survey-text","198","486415","0.0-198.0","h5nfw67ftwl","2302.4000000059605","","","{""Q0"":""prep""}","cop","prep"
"html-keyboard-response","199","488929","0.0-199.0","h5nfw67ftwl","null","<div id=""countdown"">***</div>","null","","",""
"audio-keyboard-response","200","489249","0.0-200.0","h5nfw67ftwl","null","perceptual_learning_stimuli/t2/r_please.wav","null","","",""
"survey-text","201","490751","0.0-201.0","h5nfw67ftwl","1498.2999999970198","","","{""Q0"":""place""}","please","place"
"html-keyboard-response","202","493280","0.0-202.0","h5nfw67ftwl","null","<div id=""countdown"">***</div>","null","","",""
"audio-keyboard-response","203","493649","0.0-203.0","h5nfw67ftwl","null","perceptual_learning_stimuli/t2/r_beak.wav","null","","",""
"survey-text","204","497215","0.0-204.0","h5nfw67ftwl","3562.0999999940395","","","{""Q0"":""deat""}","beak","deat"
"html-keyboard-response","205","499725","0.0-205.0","h5nfw67ftwl","null","<div id=""countdown"">***</div>","null","","",""
"audio-keyboard-response","206","499959","0.0-206.0","h5nfw67ftwl","null","perceptual_learning_stimuli/t2/r_pass.wav","null","","",""
"survey-text","207","502008","0.0-207.0","h5nfw67ftwl","2045.3999999910593","","","{""Q0"":""pass""}","pass","pass"
"html-keyboard-response","208","504531","0.0-208.0","h5nfw67ftwl","null","<div id=""countdown"">***</div>","null","","",""
"audio-keyboard-response","209","504970","0.0-209.0","h5nfw67ftwl","null","perceptual_learning_stimuli/t2/r_block.wav","null","","",""
"survey-text","210","506799","0.0-210.0","h5nfw67ftwl","1825.2999999970198","","","{""Q0"":""blood""}","block","blood"
"html-keyboard-response","211","509312","0.0-211.0","h5nfw67ftwl","null","<div id=""countdown"">***</div>","null","","",""
"audio-keyboard-response","212","509620","0.0-212.0","h5nfw67ftwl","null","perceptual_learning_stimuli/t2/r_sun.wav","null","","",""
"survey-text","213","512599","0.0-213.0","h5nfw67ftwl","2975","","","{""Q0"":""sire""}","sun","sire"
"html-keyboard-response","214","515108","0.0-214.0","h5nfw67ftwl","null","<div id=""countdown"">***</div>","null","","",""
"audio-keyboard-response","215","515430","0.0-215.0","h5nfw67ftwl","null","perceptual_learning_stimuli/t2/r_cheek.wav","null","","",""
"survey-text","216","516711","0.0-216.0","h5nfw67ftwl","1277","","","{""Q0"":""sheep""}","cheek","sheep"
"html-keyboard-response","217","519230","0.0-217.0","h5nfw67ftwl","null","<div id=""countdown"">***</div>","null","","",""
"audio-keyboard-response","218","519540","0.0-218.0","h5nfw67ftwl","null","perceptual_learning_stimuli/t2/r_shin.wav","null","","",""
"survey-text","219","522439","0.0-219.0","h5nfw67ftwl","2894.7000000029802","","","{""Q0"":""share""}","shin","share"
"html-keyboard-response","220","524964","0.0-220.0","h5nfw67ftwl","null","<div id=""countdown"">***</div>","null","","",""
"audio-keyboard-response","221","525291","0.0-221.0","h5nfw67ftwl","null","perceptual_learning_stimuli/t2/r_night.wav","null","","",""
"survey-text","222","526614","0.0-222.0","h5nfw67ftwl","1320.2999999970198","","","{""Q0"":""light""}","night","light"
"html-keyboard-response","223","529142","0.0-223.0","h5nfw67ftwl","null","<div id=""countdown"">***</div>","null","","",""
"audio-keyboard-response","224","529371","0.0-224.0","h5nfw67ftwl","null","perceptual_learning_stimuli/t2/r_cut.wav","null","","",""
"survey-text","225","533615","0.0-225.0","h5nfw67ftwl","4240.800000011921","","","{""Q0"":""proud""}","cut","proud"
"html-keyboard-response","226","536129","0.0-226.0","h5nfw67ftwl","null","<div id=""countdown"">***</div>","null","","",""
"audio-keyboard-response","227","536561","0.0-227.0","h5nfw67ftwl","null","perceptual_learning_stimuli/t2/r_black.wav","null","","",""
"survey-text","228","538351","0.0-228.0","h5nfw67ftwl","1786.2000000029802","","","{""Q0"":""black""}","black","black"
"html-keyboard-response","229","540874","0.0-229.0","h5nfw67ftwl","null","<div id=""countdown"">***</div>","null","","",""
"audio-keyboard-response","230","541101","0.0-230.0","h5nfw67ftwl","null","perceptual_learning_stimuli/t2/r_could.wav","null","","",""
"survey-text","231","547590","0.0-231.0","h5nfw67ftwl","6485.70000000298","","","{""Q0"":""proud""}","could","proud"
"html-keyboard-response","232","550114","0.0-232.0","h5nfw67ftwl","null","<div id=""countdown"">***</div>","null","","",""
"audio-keyboard-response","233","550402","0.0-233.0","h5nfw67ftwl","null","perceptual_learning_stimuli/t2/r_edge.wav","null","","",""
"survey-text","234","551870","0.0-234.0","h5nfw67ftwl","1465.4000000059605","","","{""Q0"":""edge""}","edge","edge"
"html-keyboard-response","235","554393","0.0-235.0","h5nfw67ftwl","null","<div id=""countdown"">***</div>","null","","",""
"audio-keyboard-response","236","554822","0.0-236.0","h5nfw67ftwl","null","perceptual_learning_stimuli/t2/r_cloth.wav","null","","",""
"survey-text","237","556854","0.0-237.0","h5nfw67ftwl","2029.4000000059605","","","{""Q0"":""plosh""}","cloth","plosh"
"html-keyboard-response","238","559373","0.0-238.0","h5nfw67ftwl","null","<div id=""countdown"">***</div>","null","","",""
"audio-keyboard-response","239","559682","0.0-239.0","h5nfw67ftwl","null","perceptual_learning_stimuli/t2/r_hop.wav","null","","",""
"survey-text","240","561014","0.0-240.0","h5nfw67ftwl","1329","","","{""Q0"":""cop""}","hop","cop"
"html-keyboard-response","241","563541","0.0-241.0","h5nfw67ftwl","null","<div id=""countdown"">***</div>","null","","",""
"audio-keyboard-response","242","563872","0.0-242.0","h5nfw67ftwl","null","perceptual_learning_stimuli/t2/r_sash.wav","null","","",""
"survey-text","243","567030","0.0-243.0","h5nfw67ftwl","3154.7999999970198","","","{""Q0"":""sash""}","sash","sash"
"html-keyboard-response","244","569545","0.0-244.0","h5nfw67ftwl","null","<div id=""countdown"">***</div>","null","","",""
"audio-keyboard-response","245","569823","0.0-245.0","h5nfw67ftwl","null","perceptual_learning_stimuli/t2/r_lip.wav","null","","",""
"survey-text","246","570990","0.0-246.0","h5nfw67ftwl","1164.7000000029802","","","{""Q0"":""lip""}","lip","lip"
"html-keyboard-response","247","573508","0.0-247.0","h5nfw67ftwl","null","<div id=""countdown"">***</div>","null","","",""
"audio-keyboard-response","248","573773","0.0-248.0","h5nfw67ftwl","null","perceptual_learning_stimuli/t2/r_pawn.wav","null","","",""
"survey-text","249","575150","0.0-249.0","h5nfw67ftwl","1373.9000000059605","","","{""Q0"":""pull""}","pawn","pull"
"html-keyboard-response","250","577677","0.0-250.0","h5nfw67ftwl","null","<div id=""countdown"">***</div>","null","","",""
"audio-keyboard-response","251","577953","0.0-251.0","h5nfw67ftwl","null","perceptual_learning_stimuli/t2/r_mud.wav","null","","",""
"survey-text","252","579678","0.0-252.0","h5nfw67ftwl","1722.1000000089407","","","{""Q0"":""blood""}","mud","blood"
"html-keyboard-response","253","582200","0.0-253.0","h5nfw67ftwl","null","<div id=""countdown"">***</div>","null","","",""
"audio-keyboard-response","254","582493","0.0-254.0","h5nfw67ftwl","null","perceptual_learning_stimuli/t2/r_moon.wav","null","","",""
"survey-text","255","584790","0.0-255.0","h5nfw67ftwl","2293.8999999910593","","","{""Q0"":""mull""}","moon","mull"
"html-keyboard-response","256","587310","0.0-256.0","h5nfw67ftwl","null","<div id=""countdown"">***</div>","null","","",""
"audio-keyboard-response","257","587593","0.0-257.0","h5nfw67ftwl","null","perceptual_learning_stimuli/t2/r_chip.wav","null","","",""
"survey-text","258","588863","0.0-258.0","h5nfw67ftwl","1266","","","{""Q0"":""sheep""}","chip","sheep"
"html-keyboard-response","259","591379","0.0-259.0","h5nfw67ftwl","null","<div id=""countdown"">***</div>","null","","",""
"audio-keyboard-response","260","591704","0.0-260.0","h5nfw67ftwl","null","perceptual_learning_stimuli/t2/r_noose.wav","null","","",""
"survey-text","261","593230","0.0-261.0","h5nfw67ftwl","1523.1000000089407","","","{""Q0"":""loose""}","noose","loose"
"html-keyboard-response","262","595744","0.0-262.0","h5nfw67ftwl","null","<div id=""countdown"">***</div>","null","","",""
"audio-keyboard-response","263","596054","0.0-263.0","h5nfw67ftwl","null","perceptual_learning_stimuli/t2/r_rap.wav","null","","",""
"survey-text","264","597518","0.0-264.0","h5nfw67ftwl","1460.7000000029802","","","{""Q0"":""rap""}","rap","rap"
"html-keyboard-response","265","600032","0.0-265.0","h5nfw67ftwl","null","<div id=""countdown"">***</div>","null","","",""
"audio-keyboard-response","266","600344","0.0-266.0","h5nfw67ftwl","null","perceptual_learning_stimuli/t2/r_loop.wav","null","","",""
"survey-text","267","601758","0.0-267.0","h5nfw67ftwl","1410.7000000029802","","","{""Q0"":""loop""}","loop","loop"
"html-keyboard-response","268","604276","0.0-268.0","h5nfw67ftwl","null","<div id=""countdown"">***</div>","null","","",""
"audio-keyboard-response","269","604715","0.0-269.0","h5nfw67ftwl","null","perceptual_learning_stimuli/t2/r_slick.wav","null","","",""
"survey-text","270","607366","0.0-270.0","h5nfw67ftwl","2648.5999999940395","","","{""Q0"":""slick""}","slick","slick"
"html-keyboard-response","271","609892","0.0-271.0","h5nfw67ftwl","null","<div id=""countdown"">***</div>","null","","",""
"audio-keyboard-response","272","610295","0.0-272.0","h5nfw67ftwl","null","perceptual_learning_stimuli/t2/r_ridge.wav","null","","",""
"survey-text","273","614750","0.0-273.0","h5nfw67ftwl","4452.4000000059605","","","{""Q0"":""ridge""}","ridge","ridge"
"html-keyboard-response","274","617266","0.0-274.0","h5nfw67ftwl","null","<div id=""countdown"">***</div>","null","","",""
"audio-keyboard-response","275","617615","0.0-275.0","h5nfw67ftwl","null","perceptual_learning_stimuli/t2/r_bus.wav","null","","",""
"survey-text","276","619886","0.0-276.0","h5nfw67ftwl","2267.9000000059605","","","{""Q0"":""dust""}","bus","dust"
"html-keyboard-response","277","622413","0.0-277.0","h5nfw67ftwl","null","<div id=""countdown"">***</div>","null","","",""
"audio-keyboard-response","278","622895","0.0-278.0","h5nfw67ftwl","null","perceptual_learning_stimuli/t2/r_stunt.wav","null","","",""
"survey-text","279","624342","0.0-279.0","h5nfw67ftwl","1443.5","","","{""Q0"":""start""}","stunt","start"
"html-keyboard-response","280","626863","0.0-280.0","h5nfw67ftwl","null","<div id=""countdown"">***</div>","null","","",""
"audio-keyboard-response","281","627296","0.0-281.0","h5nfw67ftwl","null","perceptual_learning_stimuli/t2/r_crept.wav","null","","",""
"survey-text","282","630086","0.0-282.0","h5nfw67ftwl","2787.3999999910593","","","{""Q0"":""corrupt""}","crept","corrupt"
"html-keyboard-response","283","632605","0.0-283.0","h5nfw67ftwl","null","<div id=""countdown"">***</div>","null","","",""
"audio-keyboard-response","284","633056","0.0-284.0","h5nfw67ftwl","null","perceptual_learning_stimuli/t2/r_steep.wav","null","","",""
"survey-text","285","634694","0.0-285.0","h5nfw67ftwl","1635","","","{""Q0"":""stoop""}","steep","stoop"
"html-keyboard-response","286","637218","0.0-286.0","h5nfw67ftwl","null","<div id=""countdown"">***</div>","null","","",""
"audio-keyboard-response","287","637456","0.0-287.0","h5nfw67ftwl","null","perceptual_learning_stimuli/t2/r_team.wav","null","","",""
"survey-text","288","642510","0.0-288.0","h5nfw67ftwl","5051","","","{""Q0"":""do""}","team","do"
"html-keyboard-response","289","645036","0.0-289.0","h5nfw67ftwl","null","<div id=""countdown"">***</div>","null","","",""
"audio-keyboard-response","290","645457","0.0-290.0","h5nfw67ftwl","null","perceptual_learning_stimuli/t2/r_bless.wav","null","","",""
"survey-text","291","647263","0.0-291.0","h5nfw67ftwl","1802.5","","","{""Q0"":""bless""}","bless","bless"
"html-keyboard-response","292","649770","0.0-292.0","h5nfw67ftwl","null","<div id=""countdown"">***</div>","null","","",""
"audio-keyboard-response","293","650047","0.0-293.0","h5nfw67ftwl","null","perceptual_learning_stimuli/t2/r_dot.wav","null","","",""
"survey-text","294","651326","0.0-294.0","h5nfw67ftwl","1276.0999999940395","","","{""Q0"":""dot""}","dot","dot"
"html-keyboard-response","295","653841","0.0-295.0","h5nfw67ftwl","null","<div id=""countdown"">***</div>","null","","",""
"audio-keyboard-response","296","654087","0.0-296.0","h5nfw67ftwl","null","perceptual_learning_stimuli/t2/r_kid.wav","null","","",""
"survey-text","297","657270","0.0-297.0","h5nfw67ftwl","3179.9000000059605","","","{""Q0"":""kid""}","kid","kid"
"html-keyboard-response","298","659801","0.0-298.0","h5nfw67ftwl","null","<div id=""countdown"">***</div>","null","","",""
"audio-keyboard-response","299","660168","0.0-299.0","h5nfw67ftwl","null","perceptual_learning_stimuli/t2/r_draw.wav","null","","",""
"survey-text","300","661918","0.0-300.0","h5nfw67ftwl","1747.4000000059605","","","{""Q0"":""girl""}","draw","girl"
"html-keyboard-response","301","664426","0.0-301.0","h5nfw67ftwl","null","<div id=""countdown"">***</div>","null","","",""
"audio-keyboard-response","302","664858","0.0-302.0","h5nfw67ftwl","null","perceptual_learning_stimuli/t2/r_fresh.wav","null","","",""
"survey-text","303","666574","0.0-303.0","h5nfw67ftwl","1713.2999999970198","","","{""Q0"":""fresh""}","fresh","fresh"
"html-keyboard-response","304","675694","0.0-304.0","h5nfw67ftwl","8116.199999988079","In the next block you will receive feedback after you have typed in the word that you heard. Please make sure to note if there is a difference between what you typed and what the word really is.","13","","",""
"html-keyboard-response","305","677710","0.0-305.0","h5nfw67ftwl","null","<div id=""countdown"">***</div>","null","","",""
"audio-keyboard-response","306","678058","0.0-306.0","h5nfw67ftwl","null","perceptual_learning_stimuli/f1/r_bead.wav","null","","",""
"survey-text","307","680966","0.0-307.0","h5nfw67ftwl","2904.7999999970198","","","{""Q0"":""did""}","bead","did"
"html-keyboard-response","308","682986","0.0-308.0","h5nfw67ftwl","null","bead","null","","",""
"audio-keyboard-response","309","684753","0.0-309.0","h5nfw67ftwl","null","","null","","",""
"html-keyboard-response","310","686772","0.0-310.0","h5nfw67ftwl","null","<div id=""countdown"">***</div>","null","","",""
"audio-keyboard-response","311","687229","0.0-311.0","h5nfw67ftwl","null","perceptual_learning_stimuli/f1/r_spool.wav","null","","",""
"survey-text","312","689630","0.0-312.0","h5nfw67ftwl","2397.7999999970198","","","{""Q0"":""school""}","spool","school"
"html-keyboard-response","313","691655","0.0-313.0","h5nfw67ftwl","null","spool","null","","",""
"audio-keyboard-response","314","693409","0.0-314.0","h5nfw67ftwl","null","","null","","",""
"html-keyboard-response","315","695424","0.0-315.0","h5nfw67ftwl","null","<div id=""countdown"">***</div>","null","","",""
"audio-keyboard-response","316","695919","0.0-316.0","h5nfw67ftwl","null","perceptual_learning_stimuli/f1/r_blessed.wav","null","","",""
"survey-text","317","698534","0.0-317.0","h5nfw67ftwl","2610.2000000029802","","","{""Q0"":""blessed""}","blessed","blessed"
"html-keyboard-response","318","700547","0.0-318.0","h5nfw67ftwl","null","blessed","null","","",""
"audio-keyboard-response","319","702314","0.0-319.0","h5nfw67ftwl","null","","null","","",""
"html-keyboard-response","320","704332","0.0-320.0","h5nfw67ftwl","null","<div id=""countdown"">***</div>","null","","",""
"audio-keyboard-response","321","704780","0.0-321.0","h5nfw67ftwl","null","perceptual_learning_stimuli/f1/r_crest.wav","null","","",""
"survey-text","322","706990","0.0-322.0","h5nfw67ftwl","2206.8999999910593","","","{""Q0"":""dressed""}","crest","dressed"
"html-keyboard-response","323","709011","0.0-323.0","h5nfw67ftwl","null","crest","null","","",""
"audio-keyboard-response","324","710764","0.0-324.0","h5nfw67ftwl","null","","null","","",""
"html-keyboard-response","325","712787","0.0-325.0","h5nfw67ftwl","null","<div id=""countdown"">***</div>","null","","",""
"audio-keyboard-response","326","713310","0.0-326.0","h5nfw67ftwl","null","perceptual_learning_stimuli/f1/r_street.wav","null","","",""
"survey-text","327","724750","0.0-327.0","h5nfw67ftwl","11436.29999999702","","","{""Q0"":""street""}","street","street"
"html-keyboard-response","328","726769","0.0-328.0","h5nfw67ftwl","null","street","null","","",""
"audio-keyboard-response","329","728534","0.0-329.0","h5nfw67ftwl","null","","null","","",""
"html-keyboard-response","330","730550","0.0-330.0","h5nfw67ftwl","null","<div id=""countdown"">***</div>","null","","",""
"audio-keyboard-response","331","730881","0.0-331.0","h5nfw67ftwl","null","perceptual_learning_stimuli/f1/r_reach.wav","null","","",""
"survey-text","332","732414","0.0-332.0","h5nfw67ftwl","1529.7999999970198","","","{""Q0"":""reach""}","reach","reach"
"html-keyboard-response","333","734442","0.0-333.0","h5nfw67ftwl","null","reach","null","","",""
"audio-keyboard-response","334","736200","0.0-334.0","h5nfw67ftwl","null","","null","","",""
"html-keyboard-response","335","738216","0.0-335.0","h5nfw67ftwl","null","<div id=""countdown"">***</div>","null","","",""
"audio-keyboard-response","336","738512","0.0-336.0","h5nfw67ftwl","null","perceptual_learning_stimuli/f1/r_mock.wav","null","","",""
"survey-text","337","740959","0.0-337.0","h5nfw67ftwl","2443.6000000089407","","","{""Q0"":""muck""}","mock","muck"
"html-keyboard-response","338","742983","0.0-338.0","h5nfw67ftwl","null","mock","null","","",""
"audio-keyboard-response","339","744738","0.0-339.0","h5nfw67ftwl","null","","null","","",""
"html-keyboard-response","340","746753","0.0-340.0","h5nfw67ftwl","null","<div id=""countdown"">***</div>","null","","",""
"audio-keyboard-response","341","747012","0.0-341.0","h5nfw67ftwl","null","perceptual_learning_stimuli/f1/r_who.wav","null","","",""
"survey-text","342","749270","0.0-342.0","h5nfw67ftwl","2254.7000000029802","","","{""Q0"":""cool""}","who","cool"
"html-keyboard-response","343","751294","0.0-343.0","h5nfw67ftwl","null","who","null","","",""
"audio-keyboard-response","344","753059","0.0-344.0","h5nfw67ftwl","null","","null","","",""
"html-keyboard-response","345","755073","0.0-345.0","h5nfw67ftwl","null","<div id=""countdown"">***</div>","null","","",""
"audio-keyboard-response","346","755383","0.0-346.0","h5nfw67ftwl","null","perceptual_learning_stimuli/f1/r_plod.wav","null","","",""
"survey-text","347","756958","0.0-347.0","h5nfw67ftwl","1572.5","","","{""Q0"":""plug""}","plod","plug"
"html-keyboard-response","348","758981","0.0-348.0","h5nfw67ftwl","null","plod","null","","",""
"audio-keyboard-response","349","760748","0.0-349.0","h5nfw67ftwl","null","","null","","",""
"html-keyboard-response","350","762759","0.0-350.0","h5nfw67ftwl","null","<div id=""countdown"">***</div>","null","","",""
"audio-keyboard-response","351","763063","0.0-351.0","h5nfw67ftwl","null","perceptual_learning_stimuli/f1/r_cure.wav","null","","",""
"survey-text","352","765247","0.0-352.0","h5nfw67ftwl","2180.0999999940395","","","{""Q0"":""pure""}","cure","pure"
"html-keyboard-response","353","767259","0.0-353.0","h5nfw67ftwl","null","cure","null","","",""
"audio-keyboard-response","354","769022","0.0-354.0","h5nfw67ftwl","null","","null","","",""
"html-keyboard-response","355","771046","0.0-355.0","h5nfw67ftwl","null","<div id=""countdown"">***</div>","null","","",""
"audio-keyboard-response","356","771373","0.0-356.0","h5nfw67ftwl","null","perceptual_learning_stimuli/f1/r_calm.wav","null","","",""
"survey-text","357","775303","0.0-357.0","h5nfw67ftwl","3925.7999999970198","","","{""Q0"":""tell""}","calm","tell"
"html-keyboard-response","358","777307","0.0-358.0","h5nfw67ftwl","null","calm","null","","",""
"audio-keyboard-response","359","779073","0.0-359.0","h5nfw67ftwl","null","","null","","",""
"html-keyboard-response","360","781100","0.0-360.0","h5nfw67ftwl","null","<div id=""countdown"">***</div>","null","","",""
"audio-keyboard-response","361","781384","0.0-361.0","h5nfw67ftwl","null","perceptual_learning_stimuli/f1/r_claw.wav","null","","",""
"survey-text","362","792574","0.0-362.0","h5nfw67ftwl","11186.79999999702","","","{""Q0"":""pillow""}","claw","pillow"
"html-keyboard-response","363","794592","0.0-363.0","h5nfw67ftwl","null","claw","null","","",""
"audio-keyboard-response","364","796350","0.0-364.0","h5nfw67ftwl","null","","null","","",""
"html-keyboard-response","365","798371","0.0-365.0","h5nfw67ftwl","null","<div id=""countdown"">***</div>","null","","",""
"audio-keyboard-response","366","798624","0.0-366.0","h5nfw67ftwl","null","perceptual_learning_stimuli/f1/r_tune.wav","null","","",""
"survey-text","367","800670","0.0-367.0","h5nfw67ftwl","2042.2000000029802","","","{""Q0"":""pull""}","tune","pull"
"html-keyboard-response","368","802689","0.0-368.0","h5nfw67ftwl","null","tune","null","","",""
"audio-keyboard-response","369","804448","0.0-369.0","h5nfw67ftwl","null","","null","","",""
"html-keyboard-response","370","806473","0.0-370.0","h5nfw67ftwl","null","<div id=""countdown"">***</div>","null","","",""
"audio-keyboard-response","371","806905","0.0-371.0","h5nfw67ftwl","null","perceptual_learning_stimuli/f1/r_launch.wav","null","","",""
"survey-text","372","809230","0.0-372.0","h5nfw67ftwl","2321.6000000089407","","","{""Q0"":""launch""}","launch","launch"
"html-keyboard-response","373","811253","0.0-373.0","h5nfw67ftwl","null","launch","null","","",""
"audio-keyboard-response","374","813013","0.0-374.0","h5nfw67ftwl","null","","null","","",""
"html-keyboard-response","375","815039","0.0-375.0","h5nfw67ftwl","null","<div id=""countdown"">***</div>","null","","",""
"audio-keyboard-response","376","815305","0.0-376.0","h5nfw67ftwl","null","perceptual_learning_stimuli/f1/r_tall.wav","null","","",""
"survey-text","377","817606","0.0-377.0","h5nfw67ftwl","2297","","","{""Q0"":""tell""}","tall","tell"
"html-keyboard-response","378","819619","0.0-378.0","h5nfw67ftwl","null","tall","null","","",""
"audio-keyboard-response","379","821379","0.0-379.0","h5nfw67ftwl","null","","null","","",""
"html-keyboard-response","380","823397","0.0-380.0","h5nfw67ftwl","null","<div id=""countdown"">***</div>","null","","",""
"audio-keyboard-response","381","823655","0.0-381.0","h5nfw67ftwl","null","perceptual_learning_stimuli/f1/r_chill.wav","null","","",""
"survey-text","382","825374","0.0-382.0","h5nfw67ftwl","1714.800000011921","","","{""Q0"":""feel""}","chill","feel"
"html-keyboard-response","383","827395","0.0-383.0","h5nfw67ftwl","null","chill","null","","",""
"audio-keyboard-response","384","829150","0.0-384.0","h5nfw67ftwl","null","","null","","",""
"html-keyboard-response","385","831164","0.0-385.0","h5nfw67ftwl","null","<div id=""countdown"">***</div>","null","","",""
"audio-keyboard-response","386","831476","0.0-386.0","h5nfw67ftwl","null","perceptual_learning_stimuli/f1/r_shed.wav","null","","",""
"survey-text","387","834502","0.0-387.0","h5nfw67ftwl","3022.4000000059605","","","{""Q0"":""shut""}","shed","shut"
"html-keyboard-response","388","836508","0.0-388.0","h5nfw67ftwl","null","shed","null","","",""
"audio-keyboard-response","389","838264","0.0-389.0","h5nfw67ftwl","null","","null","","",""
"html-keyboard-response","390","840281","0.0-390.0","h5nfw67ftwl","null","<div id=""countdown"">***</div>","null","","",""
"audio-keyboard-response","391","840596","0.0-391.0","h5nfw67ftwl","null","perceptual_learning_stimuli/f1/r_clot.wav","null","","",""
"survey-text","392","841886","0.0-392.0","h5nfw67ftwl","1285.9000000059605","","","{""Q0"":""plot""}","clot","plot"
"html-keyboard-response","393","843908","0.0-393.0","h5nfw67ftwl","null","clot","null","","",""
"audio-keyboard-response","394","845675","0.0-394.0","h5nfw67ftwl","null","","null","","",""
"html-keyboard-response","395","847695","0.0-395.0","h5nfw67ftwl","null","<div id=""countdown"">***</div>","null","","",""
"audio-keyboard-response","396","848027","0.0-396.0","h5nfw67ftwl","null","perceptual_learning_stimuli/f1/r_loss.wav","null","","",""
"survey-text","397","849365","0.0-397.0","h5nfw67ftwl","1335.2000000029802","","","{""Q0"":""loss""}","loss","loss"
"html-keyboard-response","398","851387","0.0-398.0","h5nfw67ftwl","null","loss","null","","",""
"audio-keyboard-response","399","853152","0.0-399.0","h5nfw67ftwl","null","","null","","",""
"html-keyboard-response","400","855166","0.0-400.0","h5nfw67ftwl","null","<div id=""countdown"">***</div>","null","","",""
"audio-keyboard-response","401","855467","0.0-401.0","h5nfw67ftwl","null","perceptual_learning_stimuli/f1/r_bomb.wav","null","","",""
"survey-text","402","857270","0.0-402.0","h5nfw67ftwl","1799.1000000089407","","","{""Q0"":""dull""}","bomb","dull"
"html-keyboard-response","403","859284","0.0-403.0","h5nfw67ftwl","null","bomb","null","","",""
"audio-keyboard-response","404","861038","0.0-404.0","h5nfw67ftwl","null","","null","","",""
"html-keyboard-response","405","863065","0.0-405.0","h5nfw67ftwl","null","<div id=""countdown"">***</div>","null","","",""
"audio-keyboard-response","406","863447","0.0-406.0","h5nfw67ftwl","null","perceptual_learning_stimuli/f1/r_chest.wav","null","","",""
"survey-text","407","865142","0.0-407.0","h5nfw67ftwl","1690.5","","","{""Q0"":""chest""}","chest","chest"
"html-keyboard-response","408","867162","0.0-408.0","h5nfw67ftwl","null","chest","null","","",""
"audio-keyboard-response","409","868928","0.0-409.0","h5nfw67ftwl","null","","null","","",""
"html-keyboard-response","410","870942","0.0-410.0","h5nfw67ftwl","null","<div id=""countdown"">***</div>","null","","",""
"audio-keyboard-response","411","871478","0.0-411.0","h5nfw67ftwl","null","perceptual_learning_stimuli/f1/r_forth.wav","null","","",""
"survey-text","412","877838","0.0-412.0","h5nfw67ftwl","6356","","","{""Q0"":""force""}","forth","force"
"html-keyboard-response","413","879855","0.0-413.0","h5nfw67ftwl","null","forth","null","","",""
"audio-keyboard-response","414","881624","0.0-414.0","h5nfw67ftwl","null","","null","","",""
"html-keyboard-response","415","883642","0.0-415.0","h5nfw67ftwl","null","<div id=""countdown"">***</div>","null","","",""
"audio-keyboard-response","416","883968","0.0-416.0","h5nfw67ftwl","null","perceptual_learning_stimuli/f1/r_test.wav","null","","",""
"survey-text","417","885262","0.0-417.0","h5nfw67ftwl","1289.5","","","{""Q0"":""test""}","test","test"
"html-keyboard-response","418","887275","0.0-418.0","h5nfw67ftwl","null","test","null","","",""
"audio-keyboard-response","419","889042","0.0-419.0","h5nfw67ftwl","null","","null","","",""
"html-keyboard-response","420","891059","0.0-420.0","h5nfw67ftwl","null","<div id=""countdown"">***</div>","null","","",""
"audio-keyboard-response","421","891369","0.0-421.0","h5nfw67ftwl","null","perceptual_learning_stimuli/f1/r_myth.wav","null","","",""
"survey-text","422","895710","0.0-422.0","h5nfw67ftwl","4337.100000008941","","","{""Q0"":""wish""}","myth","wish"
"html-keyboard-response","423","897730","0.0-423.0","h5nfw67ftwl","null","myth","null","","",""
"audio-keyboard-response","424","899495","0.0-424.0","h5nfw67ftwl","null","","null","","",""
"html-keyboard-response","425","901511","0.0-425.0","h5nfw67ftwl","null","<div id=""countdown"">***</div>","null","","",""
"audio-keyboard-response","426","901829","0.0-426.0","h5nfw67ftwl","null","perceptual_learning_stimuli/f1/r_deal.wav","null","","",""
"survey-text","427","903406","0.0-427.0","h5nfw67ftwl","1572.5","","","{""Q0"":""gear""}","deal","gear"
"html-keyboard-response","428","905424","0.0-428.0","h5nfw67ftwl","null","deal","null","","",""
"audio-keyboard-response","429","907189","0.0-429.0","h5nfw67ftwl","null","","null","","",""
"html-keyboard-response","430","909207","0.0-430.0","h5nfw67ftwl","null","<div id=""countdown"">***</div>","null","","",""
"audio-keyboard-response","431","909601","0.0-431.0","h5nfw67ftwl","null","perceptual_learning_stimuli/f1/r_hedge.wav","null","","",""
"survey-text","432","911982","0.0-432.0","h5nfw67ftwl","2378.0999999940395","","","{""Q0"":""hedge""}","hedge","hedge"
"html-keyboard-response","433","913991","0.0-433.0","h5nfw67ftwl","null","hedge","null","","",""
"audio-keyboard-response","434","915752","0.0-434.0","h5nfw67ftwl","null","","null","","",""
"html-keyboard-response","435","917766","0.0-435.0","h5nfw67ftwl","null","<div id=""countdown"">***</div>","null","","",""
"audio-keyboard-response","436","918101","0.0-436.0","h5nfw67ftwl","null","perceptual_learning_stimuli/f1/r_fish.wav","null","","",""
"survey-text","437","919695","0.0-437.0","h5nfw67ftwl","1589.8999999910593","","","{""Q0"":""fish""}","fish","fish"
"html-keyboard-response","438","921717","0.0-438.0","h5nfw67ftwl","null","fish","null","","",""
"audio-keyboard-response","439","923484","0.0-439.0","h5nfw67ftwl","null","","null","","",""
"html-keyboard-response","440","925499","0.0-440.0","h5nfw67ftwl","null","<div id=""countdown"">***</div>","null","","",""
"audio-keyboard-response","441","925831","0.0-441.0","h5nfw67ftwl","null","perceptual_learning_stimuli/f1/r_room.wav","null","","",""
"survey-text","442","927774","0.0-442.0","h5nfw67ftwl","1939","","","{""Q0"":""rule""}","room","rule"
"html-keyboard-response","443","929795","0.0-443.0","h5nfw67ftwl","null","room","null","","",""
"audio-keyboard-response","444","931554","0.0-444.0","h5nfw67ftwl","null","","null","","",""
"html-keyboard-response","445","933580","0.0-445.0","h5nfw67ftwl","null","<div id=""countdown"">***</div>","null","","",""
"audio-keyboard-response","446","933862","0.0-446.0","h5nfw67ftwl","null","perceptual_learning_stimuli/f1/r_cub.wav","null","","",""
"survey-text","447","935510","0.0-447.0","h5nfw67ftwl","1644.7000000029802","","","{""Q0"":""club""}","cub","club"
"html-keyboard-response","448","937534","0.0-448.0","h5nfw67ftwl","null","cub","null","","",""
"audio-keyboard-response","449","939288","0.0-449.0","h5nfw67ftwl","null","","null","","",""
"html-keyboard-response","450","941302","0.0-450.0","h5nfw67ftwl","null","<div id=""countdown"">***</div>","null","","",""
"audio-keyboard-response","451","941542","0.0-451.0","h5nfw67ftwl","null","perceptual_learning_stimuli/f1/r_new.wav","null","","",""
"survey-text","452","944558","0.0-452.0","h5nfw67ftwl","3012.5999999940395","","","{""Q0"":""loop""}","new","loop"
"html-keyboard-response","453","946585","0.0-453.0","h5nfw67ftwl","null","new","null","","",""
"audio-keyboard-response","454","948354","0.0-454.0","h5nfw67ftwl","null","","null","","",""
"html-keyboard-response","455","950370","0.0-455.0","h5nfw67ftwl","null","<div id=""countdown"">***</div>","null","","",""
"audio-keyboard-response","456","950602","0.0-456.0","h5nfw67ftwl","null","perceptual_learning_stimuli/f1/r_took.wav","null","","",""
"survey-text","457","954726","0.0-457.0","h5nfw67ftwl","4120.0999999940395","","","{""Q0"":""pick""}","took","pick"
"html-keyboard-response","458","956750","0.0-458.0","h5nfw67ftwl","null","took","null","","",""
"audio-keyboard-response","459","958514","0.0-459.0","h5nfw67ftwl","null","","null","","",""
"html-keyboard-response","460","960526","0.0-460.0","h5nfw67ftwl","null","<div id=""countdown"">***</div>","null","","",""
"audio-keyboard-response","461","960833","0.0-461.0","h5nfw67ftwl","null","perceptual_learning_stimuli/f1/r_bit.wav","null","","",""
"survey-text","462","962686","0.0-462.0","h5nfw67ftwl","1849.7000000029802","","","{""Q0"":""bit""}","bit","bit"
"html-keyboard-response","463","964696","0.0-463.0","h5nfw67ftwl","null","bit","null","","",""
"audio-keyboard-response","464","966461","0.0-464.0","h5nfw67ftwl","null","","null","","",""
"html-keyboard-response","465","968474","0.0-465.0","h5nfw67ftwl","null","<div id=""countdown"">***</div>","null","","",""
"audio-keyboard-response","466","968774","0.0-466.0","h5nfw67ftwl","null","perceptual_learning_stimuli/f1/r_check.wav","null","","",""
"survey-text","467","970870","0.0-467.0","h5nfw67ftwl","2093","","","{""Q0"":""check""}","check","check"
"html-keyboard-response","468","972883","0.0-468.0","h5nfw67ftwl","null","check","null","","",""
"audio-keyboard-response","469","974643","0.0-469.0","h5nfw67ftwl","null","","null","","",""
"html-keyboard-response","470","976669","0.0-470.0","h5nfw67ftwl","null","<div id=""countdown"">***</div>","null","","",""
"audio-keyboard-response","471","976964","0.0-471.0","h5nfw67ftwl","null","perceptual_learning_stimuli/f1/r_choose.wav","null","","",""
"survey-text","472","979606","0.0-472.0","h5nfw67ftwl","2638.6000000089407","","","{""Q0"":""choose""}","choose","choose"
"html-keyboard-response","473","981636","0.0-473.0","h5nfw67ftwl","null","choose","null","","",""
"audio-keyboard-response","474","983396","0.0-474.0","h5nfw67ftwl","null","","null","","",""
"html-keyboard-response","475","985413","0.0-475.0","h5nfw67ftwl","null","<div id=""countdown"">***</div>","null","","",""
"audio-keyboard-response","476","985814","0.0-476.0","h5nfw67ftwl","null","perceptual_learning_stimuli/f1/r_brew.wav","null","","",""
"survey-text","477","988342","0.0-477.0","h5nfw67ftwl","2524","","","{""Q0"":""go""}","brew","go"
"html-keyboard-response","478","990349","0.0-478.0","h5nfw67ftwl","null","brew","null","","",""
"audio-keyboard-response","479","992111","0.0-479.0","h5nfw67ftwl","null","","null","","",""
"html-keyboard-response","480","994127","0.0-480.0","h5nfw67ftwl","null","<div id=""countdown"">***</div>","null","","",""
"audio-keyboard-response","481","994515","0.0-481.0","h5nfw67ftwl","null","perceptual_learning_stimuli/f1/r_least.wav","null","","",""
"survey-text","482","996310","0.0-482.0","h5nfw67ftwl","1791.5","","","{""Q0"":""least""}","least","least"
"html-keyboard-response","483","998324","0.0-483.0","h5nfw67ftwl","null","least","null","","",""
"audio-keyboard-response","484","1000081","0.0-484.0","h5nfw67ftwl","null","","null","","",""
"html-keyboard-response","485","1002105","0.0-485.0","h5nfw67ftwl","null","<div id=""countdown"">***</div>","null","","",""
"audio-keyboard-response","486","1002555","0.0-486.0","h5nfw67ftwl","null","perceptual_learning_stimuli/f1/r_snoop.wav","null","","",""
"survey-text","487","1004278","0.0-487.0","h5nfw67ftwl","1719.300000011921","","","{""Q0"":""soup""}","snoop","soup"
"html-keyboard-response","488","1006308","0.0-488.0","h5nfw67ftwl","null","snoop","null","","",""
"audio-keyboard-response","489","1008065","0.0-489.0","h5nfw67ftwl","null","","null","","",""
"html-keyboard-response","490","1010088","0.0-490.0","h5nfw67ftwl","null","<div id=""countdown"">***</div>","null","","",""
"audio-keyboard-response","491","1010576","0.0-491.0","h5nfw67ftwl","null","perceptual_learning_stimuli/f1/r_speak.wav","null","","",""
"survey-text","492","1012310","0.0-492.0","h5nfw67ftwl","1730.7000000029802","","","{""Q0"":""squeek""}","speak","squeek"
"html-keyboard-response","493","1014330","0.0-493.0","h5nfw67ftwl","null","speak","null","","",""
"audio-keyboard-response","494","1016087","0.0-494.0","h5nfw67ftwl","null","","null","","",""
"html-keyboard-response","495","1018107","0.0-495.0","h5nfw67ftwl","null","<div id=""countdown"">***</div>","null","","",""
"audio-keyboard-response","496","1018406","0.0-496.0","h5nfw67ftwl","null","perceptual_learning_stimuli/f1/r_pure.wav","null","","",""
"survey-text","497","1019486","0.0-497.0","h5nfw67ftwl","1076.2999999970198","","","{""Q0"":""pure""}","pure","pure"
"html-keyboard-response","498","1021502","0.0-498.0","h5nfw67ftwl","null","pure","null","","",""
"audio-keyboard-response","499","1023258","0.0-499.0","h5nfw67ftwl","null","","null","","",""
"html-keyboard-response","500","1025281","0.0-500.0","h5nfw67ftwl","null","<div id=""countdown"">***</div>","null","","",""
"audio-keyboard-response","501","1025597","0.0-501.0","h5nfw67ftwl","null","perceptual_learning_stimuli/f1/r_punch.wav","null","","",""
"survey-text","502","1028022","0.0-502.0","h5nfw67ftwl","2421.7999999970198","","","{""Q0"":""punch""}","punch","punch"
"html-keyboard-response","503","1030032","0.0-503.0","h5nfw67ftwl","null","punch","null","","",""
"audio-keyboard-response","504","1031790","0.0-504.0","h5nfw67ftwl","null","","null","","",""
"html-keyboard-response","505","1033815","0.0-505.0","h5nfw67ftwl","null","<div id=""countdown"">***</div>","null","","",""
"audio-keyboard-response","506","1034306","0.0-506.0","h5nfw67ftwl","null","perceptual_learning_stimuli/f1/r_grease.wav","null","","",""
"survey-text","507","1037310","0.0-507.0","h5nfw67ftwl","2999.7999999970198","","","{""Q0"":""juries""}","grease","juries"
"html-keyboard-response","508","1039338","0.0-508.0","h5nfw67ftwl","null","grease","null","","",""
"audio-keyboard-response","509","1041100","0.0-509.0","h5nfw67ftwl","null","","null","","",""
"html-keyboard-response","510","1043114","0.0-510.0","h5nfw67ftwl","null","<div id=""countdown"">***</div>","null","","",""
"audio-keyboard-response","511","1043437","0.0-511.0","h5nfw67ftwl","null","perceptual_learning_stimuli/f1/r_rick.wav","null","","",""
"survey-text","512","1046790","0.0-512.0","h5nfw67ftwl","3348.8999999910593","","","{""Q0"":""rick""}","rick","rick"
"html-keyboard-response","513","1048810","0.0-513.0","h5nfw67ftwl","null","rick","null","","",""
"audio-keyboard-response","514","1050575","0.0-514.0","h5nfw67ftwl","null","","null","","",""
"html-keyboard-response","515","1052597","0.0-515.0","h5nfw67ftwl","null","<div id=""countdown"">***</div>","null","","",""
"audio-keyboard-response","516","1052837","0.0-516.0","h5nfw67ftwl","null","perceptual_learning_stimuli/f1/r_top.wav","null","","",""
"survey-text","517","1054366","0.0-517.0","h5nfw67ftwl","1525","","","{""Q0"":""top""}","top","top"
"html-keyboard-response","518","1056381","0.0-518.0","h5nfw67ftwl","null","top","null","","",""
"audio-keyboard-response","519","1058146","0.0-519.0","h5nfw67ftwl","null","","null","","",""
"html-keyboard-response","520","1060162","0.0-520.0","h5nfw67ftwl","null","<div id=""countdown"">***</div>","null","","",""
"audio-keyboard-response","521","1060548","0.0-521.0","h5nfw67ftwl","null","perceptual_learning_stimuli/f1/r_troop.wav","null","","",""
"survey-text","522","1068742","0.0-522.0","h5nfw67ftwl","8190.600000008941","","","{""Q0"":""loop""}","troop","loop"
"html-keyboard-response","523","1070769","0.0-523.0","h5nfw67ftwl","null","troop","null","","",""
"audio-keyboard-response","524","1072524","0.0-524.0","h5nfw67ftwl","null","","null","","",""
"html-keyboard-response","525","1074551","0.0-525.0","h5nfw67ftwl","null","<div id=""countdown"">***</div>","null","","",""
"audio-keyboard-response","526","1074829","0.0-526.0","h5nfw67ftwl","null","perceptual_learning_stimuli/f1/r_cheat.wav","null","","",""
"survey-text","527","1077133","0.0-527.0","h5nfw67ftwl","2301.7999999970198","","","{""Q0"":""sheet""}","cheat","sheet"
"html-keyboard-response","528","1079142","0.0-528.0","h5nfw67ftwl","null","cheat","null","","",""
"audio-keyboard-response","529","1080906","0.0-529.0","h5nfw67ftwl","null","","null","","",""
"html-keyboard-response","530","1082921","0.0-530.0","h5nfw67ftwl","null","<div id=""countdown"">***</div>","null","","",""
"audio-keyboard-response","531","1083409","0.0-531.0","h5nfw67ftwl","null","perceptual_learning_stimuli/f1/r_shrug.wav","null","","",""
"survey-text","532","1085198","0.0-532.0","h5nfw67ftwl","1785.3999999910593","","","{""Q0"":""shrug""}","shrug","shrug"
"html-keyboard-response","533","1087218","0.0-533.0","h5nfw67ftwl","null","shrug","null","","",""
"audio-keyboard-response","534","1088979","0.0-534.0","h5nfw67ftwl","null","","null","","",""
"html-keyboard-response","535","1090997","0.0-535.0","h5nfw67ftwl","null","<div id=""countdown"">***</div>","null","","",""
"audio-keyboard-response","536","1091339","0.0-536.0","h5nfw67ftwl","null","perceptual_learning_stimuli/f1/r_hoop.wav","null","","",""
"survey-text","537","1093493","0.0-537.0","h5nfw67ftwl","2150.5999999940395","","","{""Q0"":""hoop""}","hoop","hoop"
"html-keyboard-response","538","1095504","0.0-538.0","h5nfw67ftwl","null","hoop","null","","",""
"audio-keyboard-response","539","1097268","0.0-539.0","h5nfw67ftwl","null","","null","","",""
"html-keyboard-response","540","1099296","0.0-540.0","h5nfw67ftwl","null","<div id=""countdown"">***</div>","null","","",""
"audio-keyboard-response","541","1099649","0.0-541.0","h5nfw67ftwl","null","perceptual_learning_stimuli/f1/r_lept.wav","null","","",""
"survey-text","542","1101069","0.0-542.0","h5nfw67ftwl","1416.3999999910593","","","{""Q0"":""leapt""}","lept","leapt"
"html-keyboard-response","543","1103082","0.0-543.0","h5nfw67ftwl","null","lept","null","","",""
"audio-keyboard-response","544","1104839","0.0-544.0","h5nfw67ftwl","null","","null","","",""
"html-keyboard-response","545","1106860","0.0-545.0","h5nfw67ftwl","null","<div id=""countdown"">***</div>","null","","",""
"audio-keyboard-response","546","1107150","0.0-546.0","h5nfw67ftwl","null","perceptual_learning_stimuli/f1/r_nip.wav","null","","",""
"survey-text","547","1108349","0.0-547.0","h5nfw67ftwl","1195.699999988079","","","{""Q0"":""lip""}","nip","lip"
"html-keyboard-response","548","1110370","0.0-548.0","h5nfw67ftwl","null","nip","null","","",""
"audio-keyboard-response","549","1112132","0.0-549.0","h5nfw67ftwl","null","","null","","",""
"html-keyboard-response","550","1114148","0.0-550.0","h5nfw67ftwl","null","<div id=""countdown"">***</div>","null","","",""
"audio-keyboard-response","551","1114470","0.0-551.0","h5nfw67ftwl","null","perceptual_learning_stimuli/f1/r_dock.wav","null","","",""
"survey-text","552","1115958","0.0-552.0","h5nfw67ftwl","1484","","","{""Q0"":""gut""}","dock","gut"
"html-keyboard-response","553","1117969","0.0-553.0","h5nfw67ftwl","null","dock","null","","",""
"audio-keyboard-response","554","1119735","0.0-554.0","h5nfw67ftwl","null","","null","","",""
"html-keyboard-response","555","1128917","0.0-555.0","h5nfw67ftwl","8669.70000000298","The next block will be similar to the last block as again you will receive feedback after you have typed in the word that you have heard. Please make sure to note if there is a difference between what you typed and what the word really is.","13","","",""
"html-keyboard-response","556","1130929","0.0-556.0","h5nfw67ftwl","null","<div id=""countdown"">***</div>","null","","",""
"audio-keyboard-response","557","1131151","0.0-557.0","h5nfw67ftwl","null","perceptual_learning_stimuli/f2/r_kit.wav","null","","",""
"survey-text","558","1132645","0.0-558.0","h5nfw67ftwl","1490.699999988079","","","{""Q0"":""pit""}","kit","pit"
"html-keyboard-response","559","1134664","0.0-559.0","h5nfw67ftwl","null","kit","null","","",""
"audio-keyboard-response","560","1136420","0.0-560.0","h5nfw67ftwl","null","","null","","",""
"html-keyboard-response","561","1138439","0.0-561.0","h5nfw67ftwl","null","<div id=""countdown"">***</div>","null","","",""
"audio-keyboard-response","562","1138721","0.0-562.0","h5nfw67ftwl","null","perceptual_learning_stimuli/f2/r_wean.wav","null","","",""
"survey-text","563","1140301","0.0-563.0","h5nfw67ftwl","1576.2999999970198","","","{""Q0"":""reel""}","wean","reel"
"html-keyboard-response","564","1142320","0.0-564.0","h5nfw67ftwl","null","wean","null","","",""
"audio-keyboard-response","565","1144088","0.0-565.0","h5nfw67ftwl","null","","null","","",""
"html-keyboard-response","566","1146106","0.0-566.0","h5nfw67ftwl","null","<div id=""countdown"">***</div>","null","","",""
"audio-keyboard-response","567","1146502","0.0-567.0","h5nfw67ftwl","null","perceptual_learning_stimuli/f2/r_goof.wav","null","","",""
"survey-text","568","1147757","0.0-568.0","h5nfw67ftwl","1251.7999999970198","","","{""Q0"":""goof""}","goof","goof"
"html-keyboard-response","569","1149768","0.0-569.0","h5nfw67ftwl","null","goof","null","","",""
"audio-keyboard-response","570","1151530","0.0-570.0","h5nfw67ftwl","null","","null","","",""
"html-keyboard-response","571","1153545","0.0-571.0","h5nfw67ftwl","null","<div id=""countdown"">***</div>","null","","",""
"audio-keyboard-response","572","1153822","0.0-572.0","h5nfw67ftwl","null","perceptual_learning_stimuli/f2/r_lid.wav","null","","",""
"survey-text","573","1155381","0.0-573.0","h5nfw67ftwl","1555.4000000059605","","","{""Q0"":""lead""}","lid","lead"
"html-keyboard-response","574","1157398","0.0-574.0","h5nfw67ftwl","null","lid","null","","",""
"audio-keyboard-response","575","1159160","0.0-575.0","h5nfw67ftwl","null","","null","","",""
"html-keyboard-response","576","1161186","0.0-576.0","h5nfw67ftwl","null","<div id=""countdown"">***</div>","null","","",""
"audio-keyboard-response","577","1161643","0.0-577.0","h5nfw67ftwl","null","perceptual_learning_stimuli/f2/r_scare.wav","null","","",""
"survey-text","578","1164013","0.0-578.0","h5nfw67ftwl","2367.0999999940395","","","{""Q0"":""scare""}","scare","scare"
"html-keyboard-response","579","1166033","0.0-579.0","h5nfw67ftwl","null","scare","null","","",""
"audio-keyboard-response","580","1167794","0.0-580.0","h5nfw67ftwl","null","","null","","",""
"html-keyboard-response","581","1169807","0.0-581.0","h5nfw67ftwl","null","<div id=""countdown"">***</div>","null","","",""
"audio-keyboard-response","582","1170233","0.0-582.0","h5nfw67ftwl","null","perceptual_learning_stimuli/f2/r_budge.wav","null","","",""
"survey-text","583","1174013","0.0-583.0","h5nfw67ftwl","3776.5","","","{""Q0"":""touch""}","budge","touch"
"html-keyboard-response","584","1176036","0.0-584.0","h5nfw67ftwl","null","budge","null","","",""
"audio-keyboard-response","585","1177800","0.0-585.0","h5nfw67ftwl","null","","null","","",""
"html-keyboard-response","586","1179822","0.0-586.0","h5nfw67ftwl","null","<div id=""countdown"">***</div>","null","","",""
"audio-keyboard-response","587","1180114","0.0-587.0","h5nfw67ftwl","null","perceptual_learning_stimuli/f2/r_toss.wav","null","","",""
"survey-text","588","1181333","0.0-588.0","h5nfw67ftwl","1216.0999999940395","","","{""Q0"":""toss""}","toss","toss"
"html-keyboard-response","589","1183347","0.0-589.0","h5nfw67ftwl","null","toss","null","","",""
"audio-keyboard-response","590","1185109","0.0-590.0","h5nfw67ftwl","null","","null","","",""
"html-keyboard-response","591","1187125","0.0-591.0","h5nfw67ftwl","null","<div id=""countdown"">***</div>","null","","",""
"audio-keyboard-response","592","1187494","0.0-592.0","h5nfw67ftwl","null","perceptual_learning_stimuli/f2/r_nest.wav","null","","",""
"survey-text","593","1188733","0.0-593.0","h5nfw67ftwl","1235.7000000029802","","","{""Q0"":""lest""}","nest","lest"
"html-keyboard-response","594","1190745","0.0-594.0","h5nfw67ftwl","null","nest","null","","",""
"audio-keyboard-response","595","1192512","0.0-595.0","h5nfw67ftwl","501","","83","","",""
"html-keyboard-response","596","1194531","0.0-596.0","h5nfw67ftwl","null","<div id=""countdown"">***</div>","null","","",""
"audio-keyboard-response","597","1194954","0.0-597.0","h5nfw67ftwl","null","perceptual_learning_stimuli/f2/r_free1.wav","null","","",""
"survey-text","598","1197261","0.0-598.0","h5nfw67ftwl","2303.1000000089407","","","{""Q0"":""freeze""}","free1","freeze"
"html-keyboard-response","599","1199279","0.0-599.0","h5nfw67ftwl","null","free1","null","","",""
"audio-keyboard-response","600","1201032","0.0-600.0","h5nfw67ftwl","null","","null","","",""
"html-keyboard-response","601","1203052","0.0-601.0","h5nfw67ftwl","null","<div id=""countdown"">***</div>","null","","",""
"audio-keyboard-response","602","1203395","0.0-602.0","h5nfw67ftwl","null","perceptual_learning_stimuli/f2/r_cease.wav","null","","",""
"survey-text","603","1205885","0.0-603.0","h5nfw67ftwl","2486.7999999970198","","","{""Q0"":""cease""}","cease","cease"
"html-keyboard-response","604","1207912","0.0-604.0","h5nfw67ftwl","null","cease","null","","",""
"audio-keyboard-response","605","1209676","0.0-605.0","h5nfw67ftwl","null","","null","","",""
"html-keyboard-response","606","1211700","0.0-606.0","h5nfw67ftwl","null","<div id=""countdown"">***</div>","null","","",""
"audio-keyboard-response","607","1212016","0.0-607.0","h5nfw67ftwl","null","perceptual_learning_stimuli/f2/r_get.wav","null","","",""
"survey-text","608","1214246","0.0-608.0","h5nfw67ftwl","2226.7999999970198","","","{""Q0"":""gut""}","get","gut"
"html-keyboard-response","609","1216275","0.0-609.0","h5nfw67ftwl","null","get","null","","",""
"audio-keyboard-response","610","1218036","0.0-610.0","h5nfw67ftwl","null","","null","","",""
"html-keyboard-response","611","1220064","0.0-611.0","h5nfw67ftwl","null","<div id=""countdown"">***</div>","null","","",""
"audio-keyboard-response","612","1220566","0.0-612.0","h5nfw67ftwl","null","perceptual_learning_stimuli/f2/r_spice.wav","null","","",""
"survey-text","613","1222486","0.0-613.0","h5nfw67ftwl","1916.0999999940395","","","{""Q0"":""spice""}","spice","spice"
"html-keyboard-response","614","1224509","0.0-614.0","h5nfw67ftwl","null","spice","null","","",""
"audio-keyboard-response","615","1226271","0.0-615.0","h5nfw67ftwl","null","","null","","",""
"html-keyboard-response","616","1228293","0.0-616.0","h5nfw67ftwl","null","<div id=""countdown"">***</div>","null","","",""
"audio-keyboard-response","617","1228617","0.0-617.0","h5nfw67ftwl","null","perceptual_learning_stimuli/f2/r_pinch.wav","null","","",""
"survey-text","618","1230262","0.0-618.0","h5nfw67ftwl","1641.5999999940395","","","{""Q0"":""punch""}","pinch","punch"
"html-keyboard-response","619","1232275","0.0-619.0","h5nfw67ftwl","null","pinch","null","","",""
"audio-keyboard-response","620","1234038","0.0-620.0","h5nfw67ftwl","null","","null","","",""
"html-keyboard-response","621","1236060","0.0-621.0","h5nfw67ftwl","null","<div id=""countdown"">***</div>","null","","",""
"audio-keyboard-response","622","1236307","0.0-622.0","h5nfw67ftwl","null","perceptual_learning_stimuli/f2/r_cook.wav","null","","",""
"survey-text","623","1248366","0.0-623.0","h5nfw67ftwl","12055.29999999702","","","{""Q0"":""pret""}","cook","pret"
"html-keyboard-response","624","1250376","0.0-624.0","h5nfw67ftwl","null","cook","null","","",""
"audio-keyboard-response","625","1252142","0.0-625.0","h5nfw67ftwl","null","","null","","",""
"html-keyboard-response","626","1254170","0.0-626.0","h5nfw67ftwl","null","<div id=""countdown"">***</div>","null","","",""
"audio-keyboard-response","627","1254608","0.0-627.0","h5nfw67ftwl","null","perceptual_learning_stimuli/f2/r_grit.wav","null","","",""
"survey-text","628","1256350","0.0-628.0","h5nfw67ftwl","1738.1000000089407","","","{""Q0"":""dread""}","grit","dread"
"html-keyboard-response","629","1258369","0.0-629.0","h5nfw67ftwl","null","grit","null","","",""
"audio-keyboard-response","630","1260134","0.0-630.0","h5nfw67ftwl","null","","null","","",""
"html-keyboard-response","631","1262147","0.0-631.0","h5nfw67ftwl","null","<div id=""countdown"">***</div>","null","","",""
"audio-keyboard-response","632","1262419","0.0-632.0","h5nfw67ftwl","null","perceptual_learning_stimuli/f2/r_mess.wav","null","","",""
"survey-text","633","1264854","0.0-633.0","h5nfw67ftwl","2431.7999999970198","","","{""Q0"":""less""}","mess","less"
"html-keyboard-response","634","1266868","0.0-634.0","h5nfw67ftwl","null","mess","null","","",""
"audio-keyboard-response","635","1268637","0.0-635.0","h5nfw67ftwl","null","","null","","",""
"html-keyboard-response","636","1270650","0.0-636.0","h5nfw67ftwl","null","<div id=""countdown"">***</div>","null","","",""
"audio-keyboard-response","637","1270888","0.0-637.0","h5nfw67ftwl","null","perceptual_learning_stimuli/f2/r_teen.wav","null","","",""
"survey-text","638","1272357","0.0-638.0","h5nfw67ftwl","1465.5","","","{""Q0"":""tear""}","teen","tear"
"html-keyboard-response","639","1274379","0.0-639.0","h5nfw67ftwl","null","teen","null","","",""
"audio-keyboard-response","640","1276134","0.0-640.0","h5nfw67ftwl","null","","null","","",""
"html-keyboard-response","641","1278146","0.0-641.0","h5nfw67ftwl","null","<div id=""countdown"">***</div>","null","","",""
"audio-keyboard-response","642","1278459","0.0-642.0","h5nfw67ftwl","null","perceptual_learning_stimuli/f2/r_fed.wav","null","","",""
"survey-text","643","1279645","0.0-643.0","h5nfw67ftwl","1183","","","{""Q0"":""fed""}","fed","fed"
"html-keyboard-response","644","1281667","0.0-644.0","h5nfw67ftwl","null","fed","null","","",""
"audio-keyboard-response","645","1283432","0.0-645.0","h5nfw67ftwl","null","","null","","",""
"html-keyboard-response","646","1285448","0.0-646.0","h5nfw67ftwl","null","<div id=""countdown"">***</div>","null","","",""
"audio-keyboard-response","647","1285919","0.0-647.0","h5nfw67ftwl","null","perceptual_learning_stimuli/f2/r_paid.wav","null","","",""
"survey-text","648","1288013","0.0-648.0","h5nfw67ftwl","2090.9000000059605","","","{""Q0"":""played""}","paid","played"
"html-keyboard-response","649","1290020","0.0-649.0","h5nfw67ftwl","null","paid","null","","",""
"audio-keyboard-response","650","1291788","0.0-650.0","h5nfw67ftwl","null","","null","","",""
"html-keyboard-response","651","1293806","0.0-651.0","h5nfw67ftwl","null","<div id=""countdown"">***</div>","null","","",""
"audio-keyboard-response","652","1294080","0.0-652.0","h5nfw67ftwl","null","perceptual_learning_stimuli/f2/r_mean.wav","null","","",""
"survey-text","653","1295877","0.0-653.0","h5nfw67ftwl","1794.0999999940395","","","{""Q0"":""meer""}","mean","meer"
"html-keyboard-response","654","1297896","0.0-654.0","h5nfw67ftwl","null","mean","null","","",""
"audio-keyboard-response","655","1299662","0.0-655.0","h5nfw67ftwl","null","","null","","",""
"html-keyboard-response","656","1301673","0.0-656.0","h5nfw67ftwl","null","<div id=""countdown"">***</div>","null","","",""
"audio-keyboard-response","657","1302030","0.0-657.0","h5nfw67ftwl","null","perceptual_learning_stimuli/f2/r_reek.wav","null","","",""
"survey-text","658","1304157","0.0-658.0","h5nfw67ftwl","2123.7999999970198","","","{""Q0"":""reek""}","reek","reek"
"html-keyboard-response","659","1306177","0.0-659.0","h5nfw67ftwl","null","reek","null","","",""
"audio-keyboard-response","660","1307939","0.0-660.0","h5nfw67ftwl","null","","null","","",""
"html-keyboard-response","661","1309965","0.0-661.0","h5nfw67ftwl","null","<div id=""countdown"">***</div>","null","","",""
"audio-keyboard-response","662","1310440","0.0-662.0","h5nfw67ftwl","null","perceptual_learning_stimuli/f2/r_crutch.wav","null","","",""
"survey-text","663","1313117","0.0-663.0","h5nfw67ftwl","2672.7999999970198","","","{""Q0"":""drudge""}","crutch","drudge"
"html-keyboard-response","664","1315139","0.0-664.0","h5nfw67ftwl","null","crutch","null","","",""
"audio-keyboard-response","665","1316906","0.0-665.0","h5nfw67ftwl","null","","null","","",""
"html-keyboard-response","666","1318924","0.0-666.0","h5nfw67ftwl","null","<div id=""countdown"">***</div>","null","","",""
"audio-keyboard-response","667","1319411","0.0-667.0","h5nfw67ftwl","null","perceptual_learning_stimuli/f2/r_next.wav","null","","",""
"survey-text","668","1321157","0.0-668.0","h5nfw67ftwl","1742.7000000029802","","","{""Q0"":""next""}","next","next"
"html-keyboard-response","669","1323174","0.0-669.0","h5nfw67ftwl","null","next","null","","",""
"audio-keyboard-response","670","1324927","0.0-670.0","h5nfw67ftwl","null","","null","","",""
"html-keyboard-response","671","1326956","0.0-671.0","h5nfw67ftwl","null","<div id=""countdown"">***</div>","null","","",""
"audio-keyboard-response","672","1327281","0.0-672.0","h5nfw67ftwl","null","perceptual_learning_stimuli/f2/r_pest.wav","null","","",""
"survey-text","673","1328389","0.0-673.0","h5nfw67ftwl","1104.2999999970198","","","{""Q0"":""pest""}","pest","pest"
"html-keyboard-response","674","1330409","0.0-674.0","h5nfw67ftwl","null","pest","null","","",""
"audio-keyboard-response","675","1332177","0.0-675.0","h5nfw67ftwl","null","","null","","",""
"html-keyboard-response","676","1334196","0.0-676.0","h5nfw67ftwl","null","<div id=""countdown"">***</div>","null","","",""
"audio-keyboard-response","677","1334753","0.0-677.0","h5nfw67ftwl","null","perceptual_learning_stimuli/f2/r_scotch.wav","null","","",""
"survey-text","678","1337158","0.0-678.0","h5nfw67ftwl","2401.5","","","{""Q0"":""stretch""}","scotch","stretch"
"html-keyboard-response","679","1339179","0.0-679.0","h5nfw67ftwl","null","scotch","null","","",""
"audio-keyboard-response","680","1340945","0.0-680.0","h5nfw67ftwl","null","","null","","",""
"html-keyboard-response","681","1342970","0.0-681.0","h5nfw67ftwl","null","<div id=""countdown"">***</div>","null","","",""
"audio-keyboard-response","682","1343423","0.0-682.0","h5nfw67ftwl","null","perceptual_learning_stimuli/f2/r_skid.wav","null","","",""
"survey-text","683","1345173","0.0-683.0","h5nfw67ftwl","1747.2000000029802","","","{""Q0"":""sped""}","skid","sped"
"html-keyboard-response","684","1347196","0.0-684.0","h5nfw67ftwl","null","skid","null","","",""
"audio-keyboard-response","685","1348960","0.0-685.0","h5nfw67ftwl","null","","null","","",""
"html-keyboard-response","686","1350973","0.0-686.0","h5nfw67ftwl","null","<div id=""countdown"">***</div>","null","","",""
"audio-keyboard-response","687","1351303","0.0-687.0","h5nfw67ftwl","null","perceptual_learning_stimuli/f2/r_sup.wav","null","","",""
"survey-text","688","1354590","0.0-688.0","h5nfw67ftwl","3283.2999999970198","","","{""Q0"":""sup""}","sup","sup"
"html-keyboard-response","689","1356597","0.0-689.0","h5nfw67ftwl","null","sup","null","","",""
"audio-keyboard-response","690","1358356","0.0-690.0","h5nfw67ftwl","null","","null","","",""
"html-keyboard-response","691","1360380","0.0-691.0","h5nfw67ftwl","null","<div id=""countdown"">***</div>","null","","",""
"audio-keyboard-response","692","1360763","0.0-692.0","h5nfw67ftwl","null","perceptual_learning_stimuli/f2/r_charge.wav","null","","",""
"survey-text","693","1363037","0.0-693.0","h5nfw67ftwl","2270.5999999940395","","","{""Q0"":""charge""}","charge","charge"
"html-keyboard-response","694","1365062","0.0-694.0","h5nfw67ftwl","null","charge","null","","",""
"audio-keyboard-response","695","1366819","0.0-695.0","h5nfw67ftwl","null","","null","","",""
"html-keyboard-response","696","1368837","0.0-696.0","h5nfw67ftwl","null","<div id=""countdown"">***</div>","null","","",""
"audio-keyboard-response","697","1369234","0.0-697.0","h5nfw67ftwl","null","perceptual_learning_stimuli/f2/r_wrist.wav","null","","",""
"survey-text","698","1370653","0.0-698.0","h5nfw67ftwl","1416","","","{""Q0"":""rest""}","wrist","rest"
"html-keyboard-response","699","1372674","0.0-699.0","h5nfw67ftwl","null","wrist","null","","",""
"audio-keyboard-response","700","1374432","0.0-700.0","h5nfw67ftwl","null","","null","","",""
"html-keyboard-response","701","1376446","0.0-701.0","h5nfw67ftwl","null","<div id=""countdown"">***</div>","null","","",""
"audio-keyboard-response","702","1376644","0.0-702.0","h5nfw67ftwl","null","perceptual_learning_stimuli/f2/r_odd.wav","null","","",""
"survey-text","703","1378318","0.0-703.0","h5nfw67ftwl","1669.7999999970198","","","{""Q0"":""hug""}","odd","hug"
"html-keyboard-response","704","1380343","0.0-704.0","h5nfw67ftwl","null","odd","null","","",""
"audio-keyboard-response","705","1382101","0.0-705.0","h5nfw67ftwl","null","","null","","",""
"html-keyboard-response","706","1384115","0.0-706.0","h5nfw67ftwl","null","<div id=""countdown"">***</div>","null","","",""
"audio-keyboard-response","707","1384545","0.0-707.0","h5nfw67ftwl","null","perceptual_learning_stimuli/f2/r_skit.wav","null","","",""
"survey-text","708","1386750","0.0-708.0","h5nfw67ftwl","2201.2000000029802","","","{""Q0"":""split""}","skit","split"
"html-keyboard-response","709","1388775","0.0-709.0","h5nfw67ftwl","null","skit","null","","",""
"audio-keyboard-response","710","1390535","0.0-710.0","h5nfw67ftwl","null","","null","","",""
"html-keyboard-response","711","1392558","0.0-711.0","h5nfw67ftwl","null","<div id=""countdown"">***</div>","null","","",""
"audio-keyboard-response","712","1392975","0.0-712.0","h5nfw67ftwl","null","perceptual_learning_stimuli/f2/r_flood.wav","null","","",""
"survey-text","713","1394301","0.0-713.0","h5nfw67ftwl","1323.0999999940395","","","{""Q0"":""flood""}","flood","flood"
"html-keyboard-response","714","1396322","0.0-714.0","h5nfw67ftwl","null","flood","null","","",""
"audio-keyboard-response","715","1398082","0.0-715.0","h5nfw67ftwl","null","","null","","",""
"html-keyboard-response","716","1400109","0.0-716.0","h5nfw67ftwl","null","<div id=""countdown"">***</div>","null","","",""
"audio-keyboard-response","717","1400565","0.0-717.0","h5nfw67ftwl","null","perceptual_learning_stimuli/f2/r_slog.wav","null","","",""
"survey-text","718","1401917","0.0-718.0","h5nfw67ftwl","1348.2000000029802","","","{""Q0"":""slug""}","slog","slug"
"html-keyboard-response","719","1403940","0.0-719.0","h5nfw67ftwl","null","slog","null","","",""
"audio-keyboard-response","720","1405699","0.0-720.0","h5nfw67ftwl","null","","null","","",""
"html-keyboard-response","721","1407725","0.0-721.0","h5nfw67ftwl","null","<div id=""countdown"">***</div>","null","","",""
"audio-keyboard-response","722","1408185","0.0-722.0","h5nfw67ftwl","null","perceptual_learning_stimuli/f2/r_boost.wav","null","","",""
"survey-text","723","1409517","0.0-723.0","h5nfw67ftwl","1327.699999988079","","","{""Q0"":""boost""}","boost","boost"
"html-keyboard-response","724","1411529","0.0-724.0","h5nfw67ftwl","null","boost","null","","",""
"audio-keyboard-response","725","1413296","0.0-725.0","h5nfw67ftwl","null","","null","","",""
"html-keyboard-response","726","1415321","0.0-726.0","h5nfw67ftwl","null","<div id=""countdown"">***</div>","null","","",""
"audio-keyboard-response","727","1415926","0.0-727.0","h5nfw67ftwl","null","perceptual_learning_stimuli/f2/r_probe.wav","null","","",""
"survey-text","728","1417629","0.0-728.0","h5nfw67ftwl","1699.7999999970198","","","{""Q0"":""probe""}","probe","probe"
"html-keyboard-response","729","1419644","0.0-729.0","h5nfw67ftwl","null","probe","null","","",""
"audio-keyboard-response","730","1421405","0.0-730.0","h5nfw67ftwl","null","","null","","",""
"html-keyboard-response","731","1423427","0.0-731.0","h5nfw67ftwl","null","<div id=""countdown"">***</div>","null","","",""
"audio-keyboard-response","732","1423776","0.0-732.0","h5nfw67ftwl","null","perceptual_learning_stimuli/f2/r_perk.wav","null","","",""
"survey-text","733","1425197","0.0-733.0","h5nfw67ftwl","1417.0999999940395","","","{""Q0"":""pack""}","perk","pack"
"html-keyboard-response","734","1427210","0.0-734.0","h5nfw67ftwl","null","perk","null","","",""
"audio-keyboard-response","735","1428964","0.0-735.0","h5nfw67ftwl","null","","null","","",""
"html-keyboard-response","736","1430977","0.0-736.0","h5nfw67ftwl","null","<div id=""countdown"">***</div>","null","","",""
"audio-keyboard-response","737","1431437","0.0-737.0","h5nfw67ftwl","null","perceptual_learning_stimuli/f2/r_beast.wav","null","","",""
"survey-text","738","1435741","0.0-738.0","h5nfw67ftwl","4300.5999999940395","","","{""Q0"":""dist""}","beast","dist"
"html-keyboard-response","739","1437758","0.0-739.0","h5nfw67ftwl","null","beast","null","","",""
"audio-keyboard-response","740","1439525","0.0-740.0","h5nfw67ftwl","null","","null","","",""
"html-keyboard-response","741","1441538","0.0-741.0","h5nfw67ftwl","null","<div id=""countdown"">***</div>","null","","",""
"audio-keyboard-response","742","1441907","0.0-742.0","h5nfw67ftwl","null","perceptual_learning_stimuli/f2/r_fate.wav","null","","",""
"survey-text","743","1443037","0.0-743.0","h5nfw67ftwl","1126.2000000029802","","","{""Q0"":""fate""}","fate","fate"
"html-keyboard-response","744","1445058","0.0-744.0","h5nfw67ftwl","null","fate","null","","",""
"audio-keyboard-response","745","1446823","0.0-745.0","h5nfw67ftwl","null","","null","","",""
"html-keyboard-response","746","1448846","0.0-746.0","h5nfw67ftwl","null","<div id=""countdown"">***</div>","null","","",""
"audio-keyboard-response","747","1449228","0.0-747.0","h5nfw67ftwl","null","perceptual_learning_stimuli/f2/r_bolt.wav","null","","",""
"survey-text","748","1452157","0.0-748.0","h5nfw67ftwl","2925.9000000059605","","","{""Q0"":""built""}","bolt","built"
"html-keyboard-response","749","1454178","0.0-749.0","h5nfw67ftwl","null","bolt","null","","",""
"audio-keyboard-response","750","1455935","0.0-750.0","h5nfw67ftwl","null","","null","","",""
"html-keyboard-response","751","1457950","0.0-751.0","h5nfw67ftwl","null","<div id=""countdown"">***</div>","null","","",""
"audio-keyboard-response","752","1458239","0.0-752.0","h5nfw67ftwl","null","perceptual_learning_stimuli/f2/r_inch.wav","null","","",""
"survey-text","753","1459630","0.0-753.0","h5nfw67ftwl","1387.2999999970198","","","{""Q0"":""inch""}","inch","inch"
"html-keyboard-response","754","1461652","0.0-754.0","h5nfw67ftwl","null","inch","null","","",""
"audio-keyboard-response","755","1463415","0.0-755.0","h5nfw67ftwl","null","","null","","",""
"html-keyboard-response","756","1465433","0.0-756.0","h5nfw67ftwl","null","<div id=""countdown"">***</div>","null","","",""
"audio-keyboard-response","757","1465809","0.0-757.0","h5nfw67ftwl","null","perceptual_learning_stimuli/f2/r_notch.wav","null","","",""
"survey-text","758","1468413","0.0-758.0","h5nfw67ftwl","2600.7999999970198","","","{""Q0"":""much""}","notch","much"
"html-keyboard-response","759","1470430","0.0-759.0","h5nfw67ftwl","null","notch","null","","",""
"audio-keyboard-response","760","1472195","0.0-760.0","h5nfw67ftwl","null","","null","","",""
"html-keyboard-response","761","1474210","0.0-761.0","h5nfw67ftwl","null","<div id=""countdown"">***</div>","null","","",""
"audio-keyboard-response","762","1474469","0.0-762.0","h5nfw67ftwl","null","perceptual_learning_stimuli/f2/r_tick.wav","null","","",""
"survey-text","763","1476230","0.0-763.0","h5nfw67ftwl","1756.4000000059605","","","{""Q0"":""tick""}","tick","tick"
"html-keyboard-response","764","1478242","0.0-764.0","h5nfw67ftwl","null","tick","null","","",""
"audio-keyboard-response","765","1480008","0.0-765.0","h5nfw67ftwl","null","","null","","",""
"html-keyboard-response","766","1482025","0.0-766.0","h5nfw67ftwl","null","<div id=""countdown"">***</div>","null","","",""
"audio-keyboard-response","767","1482320","0.0-767.0","h5nfw67ftwl","null","perceptual_learning_stimuli/f2/r_heat.wav","null","","",""
"survey-text","768","1484838","0.0-768.0","h5nfw67ftwl","2513.7999999970198","","","{""Q0"":""read""}","heat","read"
"html-keyboard-response","769","1486856","0.0-769.0","h5nfw67ftwl","null","heat","null","","",""
"audio-keyboard-response","770","1488614","0.0-770.0","h5nfw67ftwl","291","","83","","",""
"html-keyboard-response","771","1490628","0.0-771.0","h5nfw67ftwl","null","<div id=""countdown"">***</div>","null","","",""
"audio-keyboard-response","772","1490901","0.0-772.0","h5nfw67ftwl","null","perceptual_learning_stimuli/f2/r_hit.wav","null","","",""
"survey-text","773","1492574","0.0-773.0","h5nfw67ftwl","1669.5","","","{""Q0"":""hit""}","hit","hit"
"html-keyboard-response","774","1494601","0.0-774.0","h5nfw67ftwl","null","hit","null","","",""
"audio-keyboard-response","775","1496365","0.0-775.0","h5nfw67ftwl","null","","null","","",""
"html-keyboard-response","776","1498386","0.0-776.0","h5nfw67ftwl","null","<div id=""countdown"">***</div>","null","","",""
"audio-keyboard-response","777","1498701","0.0-777.0","h5nfw67ftwl","null","perceptual_learning_stimuli/f2/r_deep.wav","null","","",""
"survey-text","778","1500990","0.0-778.0","h5nfw67ftwl","2285.8999999910593","","","{""Q0"":""deep""}","deep","deep"
"html-keyboard-response","779","1503006","0.0-779.0","h5nfw67ftwl","null","deep","null","","",""
"audio-keyboard-response","780","1504760","0.0-780.0","h5nfw67ftwl","null","","null","","",""
"html-keyboard-response","781","1506778","0.0-781.0","h5nfw67ftwl","null","<div id=""countdown"">***</div>","null","","",""
"audio-keyboard-response","782","1507051","0.0-782.0","h5nfw67ftwl","null","perceptual_learning_stimuli/f2/r_raw.wav","null","","",""
"survey-text","783","1508126","0.0-783.0","h5nfw67ftwl","1070.9000000059605","","","{""Q0"":""row""}","raw","row"
"html-keyboard-response","784","1510144","0.0-784.0","h5nfw67ftwl","null","raw","null","","",""
"audio-keyboard-response","785","1511909","0.0-785.0","h5nfw67ftwl","null","","null","","",""
"html-keyboard-response","786","1513934","0.0-786.0","h5nfw67ftwl","null","<div id=""countdown"">***</div>","null","","",""
"audio-keyboard-response","787","1514301","0.0-787.0","h5nfw67ftwl","null","perceptual_learning_stimuli/f2/r_rug.wav","null","","",""
"survey-text","788","1515757","0.0-788.0","h5nfw67ftwl","1452.5","","","{""Q0"":""rug""}","rug","rug"
"html-keyboard-response","789","1517780","0.0-789.0","h5nfw67ftwl","null","rug","null","","",""
"audio-keyboard-response","790","1519547","0.0-790.0","h5nfw67ftwl","null","","null","","",""
"html-keyboard-response","791","1521561","0.0-791.0","h5nfw67ftwl","null","<div id=""countdown"">***</div>","null","","",""
"audio-keyboard-response","792","1521832","0.0-792.0","h5nfw67ftwl","null","perceptual_learning_stimuli/f2/r_end.wav","null","","",""
"survey-text","793","1524013","0.0-793.0","h5nfw67ftwl","2177.5999999940395","","","{""Q0"":""bed""}","end","bed"
"html-keyboard-response","794","1526025","0.0-794.0","h5nfw67ftwl","null","end","null","","",""
"audio-keyboard-response","795","1527780","0.0-795.0","h5nfw67ftwl","null","","null","","",""
"html-keyboard-response","796","1529794","0.0-796.0","h5nfw67ftwl","null","<div id=""countdown"">***</div>","null","","",""
"audio-keyboard-response","797","1530072","0.0-797.0","h5nfw67ftwl","null","perceptual_learning_stimuli/f2/r_ray.wav","null","","",""
"survey-text","798","1531733","0.0-798.0","h5nfw67ftwl","1657.5","","","{""Q0"":""ray""}","ray","ray"
"html-keyboard-response","799","1533746","0.0-799.0","h5nfw67ftwl","null","ray","null","","",""
"audio-keyboard-response","800","1535503","0.0-800.0","h5nfw67ftwl","null","","null","","",""
"html-keyboard-response","801","1537519","0.0-801.0","h5nfw67ftwl","null","<div id=""countdown"">***</div>","null","","",""
"audio-keyboard-response","802","1537822","0.0-802.0","h5nfw67ftwl","null","perceptual_learning_stimuli/f2/r_lead.wav","null","","",""
"survey-text","803","1539133","0.0-803.0","h5nfw67ftwl","1308.9000000059605","","","{""Q0"":""lead""}","lead","lead"
"html-keyboard-response","804","1541156","0.0-804.0","h5nfw67ftwl","null","lead","null","","",""
"audio-keyboard-response","805","1542920","0.0-805.0","h5nfw67ftwl","null","","null","","",""
"html-keyboard-response","806","1549261","0.0-806.0","h5nfw67ftwl","5830.600000008941","The next block will be similar to the last block as again you will receive feedback after you have typed in the word that you have heard. Please make sure to note if there is a difference between what you typed and what the word really is.","13","","",""
"html-keyboard-response","807","1551288","0.0-807.0","h5nfw67ftwl","null","<div id=""countdown"">***</div>","null","","",""
"audio-keyboard-response","808","1551583","0.0-808.0","h5nfw67ftwl","null","perceptual_learning_stimuli/f3/r_leap.wav","null","","",""
"survey-text","809","1552757","0.0-809.0","h5nfw67ftwl","1170.2999999970198","","","{""Q0"":""leap""}","leap","leap"
"html-keyboard-response","810","1554769","0.0-810.0","h5nfw67ftwl","null","leap","null","","",""
"audio-keyboard-response","811","1556529","0.0-811.0","h5nfw67ftwl","null","","null","","",""
"html-keyboard-response","812","1558546","0.0-812.0","h5nfw67ftwl","null","<div id=""countdown"">***</div>","null","","",""
"audio-keyboard-response","813","1558773","0.0-813.0","h5nfw67ftwl","null","perceptual_learning_stimuli/f3/r_lung.wav","null","","",""
"survey-text","814","1560869","0.0-814.0","h5nfw67ftwl","2092.1000000089407","","","{""Q0"":""blood""}","lung","blood"
"html-keyboard-response","815","1562881","0.0-815.0","h5nfw67ftwl","null","lung","null","","",""
"audio-keyboard-response","816","1564638","0.0-816.0","h5nfw67ftwl","null","","null","","",""
"html-keyboard-response","817","1566659","0.0-817.0","h5nfw67ftwl","null","<div id=""countdown"">***</div>","null","","",""
"audio-keyboard-response","818","1566973","0.0-818.0","h5nfw67ftwl","null","perceptual_learning_stimuli/f3/r_half.wav","null","","",""
"survey-text","819","1568301","0.0-819.0","h5nfw67ftwl","1323.9000000059605","","","{""Q0"":""half""}","half","half"
"html-keyboard-response","820","1570320","0.0-820.0","h5nfw67ftwl","null","half","null","","",""
"audio-keyboard-response","821","1572086","0.0-821.0","h5nfw67ftwl","null","","null","","",""
"html-keyboard-response","822","1574106","0.0-822.0","h5nfw67ftwl","null","<div id=""countdown"">***</div>","null","","",""
"audio-keyboard-response","823","1574635","0.0-823.0","h5nfw67ftwl","null","perceptual_learning_stimuli/f3/r_flaunt.wav","null","","",""
"survey-text","824","1576694","0.0-824.0","h5nfw67ftwl","2055","","","{""Q0"":""filled""}","flaunt","filled"
"html-keyboard-response","825","1578705","0.0-825.0","h5nfw67ftwl","null","flaunt","null","","",""
"audio-keyboard-response","826","1580461","0.0-826.0","h5nfw67ftwl","null","","null","","",""
"html-keyboard-response","827","1582474","0.0-827.0","h5nfw67ftwl","null","<div id=""countdown"">***</div>","null","","",""
"audio-keyboard-response","828","1582755","0.0-828.0","h5nfw67ftwl","null","perceptual_learning_stimuli/f3/r_gel.wav","null","","",""
"survey-text","829","1584710","0.0-829.0","h5nfw67ftwl","1950.5","","","{""Q0"":""shadow""}","gel","shadow"
"html-keyboard-response","830","1586733","0.0-830.0","h5nfw67ftwl","null","gel","null","","",""
"audio-keyboard-response","831","1588491","0.0-831.0","h5nfw67ftwl","null","","null","","",""
"html-keyboard-response","832","1590519","0.0-832.0","h5nfw67ftwl","null","<div id=""countdown"">***</div>","null","","",""
"audio-keyboard-response","833","1591026","0.0-833.0","h5nfw67ftwl","null","perceptual_learning_stimuli/f3/r_greek.wav","null","","",""
"survey-text","834","1592734","0.0-834.0","h5nfw67ftwl","1704.2999999970198","","","{""Q0"":""drape""}","greek","drape"
"html-keyboard-response","835","1594746","0.0-835.0","h5nfw67ftwl","null","greek","null","","",""
"audio-keyboard-response","836","1596506","0.0-836.0","h5nfw67ftwl","null","","null","","",""
"html-keyboard-response","837","1598526","0.0-837.0","h5nfw67ftwl","null","<div id=""countdown"">***</div>","null","","",""
"audio-keyboard-response","838","1598836","0.0-838.0","h5nfw67ftwl","null","perceptual_learning_stimuli/f3/r_did.wav","null","","",""
"survey-text","839","1600190","0.0-839.0","h5nfw67ftwl","1350.1000000089407","","","{""Q0"":""good""}","did","good"
